build,computer.platform,date,time,group,subject,blockcode,blocknum,trialcode,trialnum,response,correct,latency,stimulusnumber1,stimulusitem1,condition,d_sc,latdiff_sc,percentcorrect_sc,d_p,percentcorrect_p,d,percentcorrect
6.2.1,mac,7/19/20,1:25:03,2,3HL8HNGX46AYMN48079XSCJZ0FW9F3,MIM_I,1,MIM_I_im,3,36,1,2987,8,corrupt,MIM_IC_vain,,0,100,,0,,0
6.2.1,mac,7/19/20,1:25:03,2,3HL8HNGX46AYMN48079XSCJZ0FW9F3,MIM_I,1,MIM_I_im,4,36,1,2175,1,immoral,MIM_IC_vain,,0,100,,0,,0
6.2.1,mac,7/19/20,1:25:03,2,3HL8HNGX46AYMN48079XSCJZ0FW9F3,MIM_I,1,MIM_I_m,5,33,1,1164,4,fair,MIM_IC_vain,,0,100,,0,,0
6.2.1,mac,7/19/20,1:25:03,2,3HL8HNGX46AYMN48079XSCJZ0FW9F3,MIM_I,1,MIM_I_im,6,36,1,1123,5,dishonest,MIM_IC_vain,,0,100,,0,,0
6.2.1,mac,7/19/20,1:25:03,2,3HL8HNGX46AYMN48079XSCJZ0FW9F3,MIM_I,1,MIM_I_m,7,33,1,1203,6,truthful,MIM_IC_vain,,0,100,,0,,0
6.2.1,mac,7/19/20,1:25:03,2,3HL8HNGX46AYMN48079XSCJZ0FW9F3,MIM_I,1,MIM_I_att,8,36,1,2542,3,gorgeous,MIM_IC_vain,,0,100,,0,,0
6.2.1,mac,7/19/20,1:25:03,2,3HL8HNGX46AYMN48079XSCJZ0FW9F3,MIM_I,1,MIM_I_att,9,36,1,1847,8,stunning,MIM_IC_vain,,0,100,,0,,0
6.2.1,mac,7/19/20,1:25:03,2,3HL8HNGX46AYMN48079XSCJZ0FW9F3,MIM_I,1,MIM_I_att,10,36,1,885,5,pretty,MIM_IC_vain,,0,100,,0,,0
6.2.1,mac,7/19/20,1:25:03,2,3HL8HNGX46AYMN48079XSCJZ0FW9F3,MIM_I,1,MIM_I_m,11,33,1,1293,2,ethical,MIM_IC_vain,,0,100,,0,,0
6.2.1,mac,7/19/20,1:25:03,2,3HL8HNGX46AYMN48079XSCJZ0FW9F3,MIMV_I_practice,2,pMIMD_I_att,3,36,1,4272,1,attractive,MIM_IC_vain,,0,127.2727273,,466.6666667,,0
6.2.1,mac,7/19/20,1:25:03,2,3HL8HNGX46AYMN48079XSCJZ0FW9F3,MIMV_I_practice,2,pMIMD_I_att,4,36,1,1484,6,sexy,MIM_IC_vain,,0,136.3636364,,375,,0
6.2.1,mac,7/19/20,1:25:03,2,3HL8HNGX46AYMN48079XSCJZ0FW9F3,MIMV_I_practice,2,pMIMD_I_im,5,36,1,1489,3,unfair,MIM_IC_vain,,0,145.4545455,,320,,0
6.2.1,mac,7/19/20,1:25:03,2,3HL8HNGX46AYMN48079XSCJZ0FW9F3,MIMV_I_practice,2,pMIMD_I_m,6,33,1,3140,8,principled,MIM_IC_vain,,0,154.5454545,,283.3333333,,0
6.2.1,mac,7/19/20,1:25:03,2,3HL8HNGX46AYMN48079XSCJZ0FW9F3,MIMV_I_practice,2,pMIMD_I_att,7,36,1,1302,2,good-looking,MIM_IC_vain,,0,163.6363636,,257.1428571,,0
6.2.1,mac,7/19/20,1:25:03,2,3HL8HNGX46AYMN48079XSCJZ0FW9F3,MIMV_I_practice,2,pMIMD_I_v,8,57,1,1586,4,prideful,MIM_IC_vain,,0,172.7272727,,237.5,,0
6.2.1,mac,7/19/20,1:25:03,2,3HL8HNGX46AYMN48079XSCJZ0FW9F3,MIMV_I_practice,2,pMIMD_I_m,9,33,1,1597,5,honest,MIM_IC_vain,,0,181.8181818,,222.2222222,,0
6.2.1,mac,7/19/20,1:25:03,2,3HL8HNGX46AYMN48079XSCJZ0FW9F3,MIMV_I_practice,2,pMIMD_I_v,10,57,1,1119,6,arrogant,MIM_IC_vain,,0,190.9090909,,210,,0
6.2.1,mac,7/19/20,1:25:03,2,3HL8HNGX46AYMN48079XSCJZ0FW9F3,MIMV_I_practice,2,pMIMD_I_v,11,57,1,1540,2,superficial,MIM_IC_vain,,0,200,,200,,0
6.2.1,mac,7/19/20,1:25:03,2,3HL8HNGX46AYMN48079XSCJZ0FW9F3,MIMV_I_practice,2,pMIMD_I_att,12,36,1,985,7,beautiful,MIM_IC_vain,,0,209.0909091,,191.6666667,,0
6.2.1,mac,7/19/20,1:25:03,2,3HL8HNGX46AYMN48079XSCJZ0FW9F3,MIMV_I_practice,2,pMIMD_I_im,13,36,1,1374,4,deceitful,MIM_IC_vain,,0,218.1818182,,184.6153846,,0
6.2.1,mac,7/19/20,1:25:03,2,3HL8HNGX46AYMN48079XSCJZ0FW9F3,MIMV_I_practice,2,pMIMD_I_m,14,33,1,1198,3,virtuous,MIM_IC_vain,,0,227.2727273,,178.5714286,,0
6.2.1,mac,7/19/20,1:25:03,2,3HL8HNGX46AYMN48079XSCJZ0FW9F3,MIMV_I_practice,2,pMIMD_I_im,15,36,1,1653,6,unprincipled,MIM_IC_vain,,0,236.3636364,,173.3333333,,0
6.2.1,mac,7/19/20,1:25:03,2,3HL8HNGX46AYMN48079XSCJZ0FW9F3,MIMV_I_practice,2,pMIMD_I_im,16,36,1,1009,2,unethical,MIM_IC_vain,,0,245.4545455,,168.75,,0
6.2.1,mac,7/19/20,1:25:03,2,3HL8HNGX46AYMN48079XSCJZ0FW9F3,MIMV_I_practice,2,pMIMD_I_v,17,57,1,975,8,conceited,MIM_IC_vain,,0,254.5454545,,164.7058824,,0
6.2.1,mac,7/19/20,1:25:03,2,3HL8HNGX46AYMN48079XSCJZ0FW9F3,MIMV_I_practice,2,pMIMD_I_m,18,33,1,806,1,moral,MIM_IC_vain,,0,263.6363636,,161.1111111,,0
6.2.1,mac,7/19/20,1:25:03,2,3HL8HNGX46AYMN48079XSCJZ0FW9F3,MIMV_I_test,3,MIMD_I_m,2,33,1,4252,7,trustworthy,MIM_IC_vain,,0,281.8181818,,172.2222222,0.930583172,1550
6.2.1,mac,7/19/20,1:25:03,2,3HL8HNGX46AYMN48079XSCJZ0FW9F3,MIMV_I_test,3,MIMD_I_att,3,36,1,1100,4,handsome,MIM_IC_vain,,0,290.9090909,,177.7777778,0.798351257,1066.666667
6.2.1,mac,7/19/20,1:25:03,2,3HL8HNGX46AYMN48079XSCJZ0FW9F3,MIMV_I_test,3,MIMD_I_m,4,33,1,1288,5,honest,MIM_IC_vain,,0,300,,183.3333333,0.734823218,825
6.2.1,mac,7/19/20,1:25:03,2,3HL8HNGX46AYMN48079XSCJZ0FW9F3,MIMV_I_test,3,MIMD_I_m,5,33,1,1124,6,truthful,MIM_IC_vain,,0,309.0909091,,188.8888889,0.689150542,680
6.2.1,mac,7/19/20,1:25:03,2,3HL8HNGX46AYMN48079XSCJZ0FW9F3,MIMV_I_test,3,MIMD_I_m,6,33,1,689,4,fair,MIM_IC_vain,,0,318.1818182,,194.4444444,0.643654031,583.3333333
6.2.1,mac,7/19/20,1:25:03,2,3HL8HNGX46AYMN48079XSCJZ0FW9F3,MIMV_I_test,3,MIMD_I_im,7,36,1,779,7,untrustworthy,MIM_IC_vain,,0,327.2727273,,200,0.613163145,514.2857143
6.2.1,mac,7/19/20,1:25:03,2,3HL8HNGX46AYMN48079XSCJZ0FW9F3,MIMV_I_test,3,MIMD_I_att,8,36,1,1080,4,handsome,MIM_IC_vain,,0,336.3636364,,205.5555556,0.598327381,462.5
6.2.1,mac,7/19/20,1:25:03,2,3HL8HNGX46AYMN48079XSCJZ0FW9F3,MIMV_I_test,3,MIMD_I_v,9,57,1,910,7,narcissistic,MIM_IC_vain,,0,345.4545455,,211.1111111,0.583104165,422.2222222
6.2.1,mac,7/19/20,1:25:03,2,3HL8HNGX46AYMN48079XSCJZ0FW9F3,MIMV_I_test,3,MIMD_I_im,10,36,1,1333,5,dishonest,MIM_IC_vain,,0,354.5454545,,216.6666667,0.581107146,390
6.2.1,mac,7/19/20,1:25:03,2,3HL8HNGX46AYMN48079XSCJZ0FW9F3,MIMV_I_test,3,MIMD_I_m,11,33,1,1292,7,trustworthy,MIM_IC_vain,,0,363.6363636,,222.2222222,0.579646773,363.6363636
6.2.1,mac,7/19/20,1:25:03,2,3HL8HNGX46AYMN48079XSCJZ0FW9F3,MIMV_I_test,3,MIMD_I_att,12,36,1,965,6,sexy,MIM_IC_vain,,0,372.7272727,,227.7777778,0.572513044,341.6666667
6.2.1,mac,7/19/20,1:25:03,2,3HL8HNGX46AYMN48079XSCJZ0FW9F3,MIMV_I_test,3,MIMD_I_v,13,57,1,811,5,egocentric,MIM_IC_vain,,0,381.8181818,,233.3333333,0.563781892,323.0769231
6.2.1,mac,7/19/20,1:25:03,2,3HL8HNGX46AYMN48079XSCJZ0FW9F3,MIMV_I_test,3,MIMD_I_v,14,57,1,750,1,vain,MIM_IC_vain,,0,390.9090909,,238.8888889,0.555369032,307.1428571
6.2.1,mac,7/19/20,1:25:03,2,3HL8HNGX46AYMN48079XSCJZ0FW9F3,MIMV_I_test,3,MIMD_I_im,15,36,1,1107,3,unfair,MIM_IC_vain,,0,400,,244.4444444,0.554911964,293.3333333
6.2.1,mac,7/19/20,1:25:03,2,3HL8HNGX46AYMN48079XSCJZ0FW9F3,MIMV_I_test,3,MIMD_I_v,16,57,1,727,3,self-absorbed,MIM_IC_vain,,0,409.0909091,,250,0.548248541,281.25
6.2.1,mac,7/19/20,1:25:03,2,3HL8HNGX46AYMN48079XSCJZ0FW9F3,MIMV_I_test,3,MIMD_I_im,17,36,1,1002,2,unethical,MIM_IC_vain,,0,418.1818182,,255.5555556,0.547326947,270.5882353
6.2.1,mac,7/19/20,1:25:03,2,3HL8HNGX46AYMN48079XSCJZ0FW9F3,MIMV_I_test,3,MIMD_I_m,18,33,1,666,1,moral,MIM_IC_vain,,0,427.2727273,,261.1111111,0.541250052,261.1111111
6.2.1,mac,7/19/20,1:25:03,2,3HL8HNGX46AYMN48079XSCJZ0FW9F3,MIMV_I_test,3,MIMD_I_v,19,57,1,829,7,narcissistic,MIM_IC_vain,,0,436.3636364,,266.6666667,0.538638825,252.6315789
6.2.1,mac,7/19/20,1:25:03,2,3HL8HNGX46AYMN48079XSCJZ0FW9F3,MIMV_I_test,3,MIMD_I_att,20,36,1,823,7,beautiful,MIM_IC_vain,,0,445.4545455,,272.2222222,0.536440542,245
6.2.1,mac,7/19/20,1:25:03,2,3HL8HNGX46AYMN48079XSCJZ0FW9F3,MIMV_I_test,3,MIMD_I_att,21,36,1,721,5,pretty,MIM_IC_vain,,0,454.5454545,,277.7777778,0.533110166,238.0952381
6.2.1,mac,7/19/20,1:25:03,2,3HL8HNGX46AYMN48079XSCJZ0FW9F3,MIMV_I_test,3,MIMD_I_m,22,33,1,1093,2,ethical,MIM_IC_vain,,0,463.6363636,,283.3333333,0.535721478,231.8181818
6.2.1,mac,7/19/20,1:25:03,2,3HL8HNGX46AYMN48079XSCJZ0FW9F3,MIMV_I_test,3,MIMD_I_v,23,57,1,758,6,arrogant,MIM_IC_vain,,0,472.7272727,,288.8888889,0.53366878,226.0869565
6.2.1,mac,7/19/20,1:25:03,2,3HL8HNGX46AYMN48079XSCJZ0FW9F3,MIMV_I_test,3,MIMD_I_att,24,36,1,714,1,attractive,MIM_IC_vain,,0,481.8181818,,294.4444444,0.5313294,220.8333333
6.2.1,mac,7/19/20,1:25:03,2,3HL8HNGX46AYMN48079XSCJZ0FW9F3,MIMV_I_test,3,MIMD_I_att,25,36,1,981,2,good-looking,MIM_IC_vain,,0,490.9090909,,300,0.532999283,216
6.2.1,mac,7/19/20,1:25:03,2,3HL8HNGX46AYMN48079XSCJZ0FW9F3,MIMV_I_test,3,MIMD_I_att,26,36,1,761,3,gorgeous,MIM_IC_vain,,0,500,,305.5555556,0.531848883,211.5384615
6.2.1,mac,7/19/20,1:25:03,2,3HL8HNGX46AYMN48079XSCJZ0FW9F3,MIMV_I_test,3,MIMD_I_m,27,33,1,936,8,principled,MIM_IC_vain,,0,509.0909091,,311.1111111,0.533242788,207.4074074
6.2.1,mac,7/19/20,1:25:03,2,3HL8HNGX46AYMN48079XSCJZ0FW9F3,MIMV_I_test,3,MIMD_I_im,28,36,1,909,1,immoral,MIM_IC_vain,,0,518.1818182,,316.6666667,0.534412189,203.5714286
6.2.1,mac,7/19/20,1:25:03,2,3HL8HNGX46AYMN48079XSCJZ0FW9F3,MIMV_I_test,3,MIMD_I_im,29,36,1,1366,8,corrupt,MIM_IC_vain,,0,527.2727273,,322.2222222,0.541180758,200
6.2.1,mac,7/19/20,1:25:03,2,3HL8HNGX46AYMN48079XSCJZ0FW9F3,MIMV_I_test,3,MIMD_I_v,30,57,1,856,4,prideful,MIM_IC_vain,,0,536.3636364,,327.7777778,0.54180819,196.6666667
6.2.1,mac,7/19/20,1:25:03,2,3HL8HNGX46AYMN48079XSCJZ0FW9F3,MIMV_I_test,3,MIMD_I_im,31,36,1,1425,6,unprincipled,MIM_IC_vain,,0,545.4545455,,333.3333333,0.549121445,193.5483871
6.2.1,mac,7/19/20,1:25:03,2,3HL8HNGX46AYMN48079XSCJZ0FW9F3,MIMV_I_test,3,MIMD_I_im,32,36,1,871,7,untrustworthy,MIM_IC_vain,,0,554.5454545,,338.8888889,0.550035727,190.625
6.2.1,mac,7/19/20,1:25:03,2,3HL8HNGX46AYMN48079XSCJZ0FW9F3,MIMV_I_test,3,MIMD_I_v,33,57,1,706,1,vain,MIM_IC_vain,,0,563.6363636,,344.4444444,0.549082191,187.8787879
6.2.1,mac,7/19/20,1:25:03,2,3HL8HNGX46AYMN48079XSCJZ0FW9F3,MIM_C,4,MIM_C_att,3,33,1,17716,8,stunning,MIM_IC_vain,,0,464.2857143,,361.1111111,0.549082191,196.969697
6.2.1,mac,7/19/20,1:25:03,2,3HL8HNGX46AYMN48079XSCJZ0FW9F3,MIM_C,4,MIM_C_im,4,36,1,1896,4,deceitful,MIM_IC_vain,,0,440,,366.6666667,0.549082191,200
6.2.1,mac,7/19/20,1:25:03,2,3HL8HNGX46AYMN48079XSCJZ0FW9F3,MIM_C,4,MIM_C_att,5,33,1,2530,5,pretty,MIM_IC_vain,,0,418.75,,372.2222222,0.549082191,203.030303
6.2.1,mac,7/19/20,1:25:03,2,3HL8HNGX46AYMN48079XSCJZ0FW9F3,MIM_C,4,MIM_C_m,6,33,1,3135,3,virtuous,MIM_IC_vain,,0,400,,377.7777778,0.549082191,206.0606061
6.2.1,mac,7/19/20,1:25:03,2,3HL8HNGX46AYMN48079XSCJZ0FW9F3,MIM_C,4,MIM_C_att,7,33,1,2154,6,sexy,MIM_IC_vain,,0,383.3333333,,383.3333333,0.549082191,209.0909091
6.2.1,mac,7/19/20,1:25:03,2,3HL8HNGX46AYMN48079XSCJZ0FW9F3,MIM_C,4,MIM_C_im,8,36,1,2344,4,deceitful,MIM_IC_vain,,0,368.4210526,,388.8888889,0.549082191,212.1212121
6.2.1,mac,7/19/20,1:25:03,2,3HL8HNGX46AYMN48079XSCJZ0FW9F3,MIM_C,4,MIM_C_m,9,33,1,1286,3,virtuous,MIM_IC_vain,,0,355,,394.4444444,0.549082191,215.1515152
6.2.1,mac,7/19/20,1:25:03,2,3HL8HNGX46AYMN48079XSCJZ0FW9F3,MIM_C,4,MIM_C_im,10,36,1,1251,5,dishonest,MIM_IC_vain,,0,342.8571429,,400,0.549082191,218.1818182
6.2.1,mac,7/19/20,1:25:03,2,3HL8HNGX46AYMN48079XSCJZ0FW9F3,MIM_C,4,MIM_C_m,11,33,1,1258,5,honest,MIM_IC_vain,,0,331.8181818,,405.5555556,0.549082191,221.2121212
6.2.1,mac,7/19/20,1:25:03,2,3HL8HNGX46AYMN48079XSCJZ0FW9F3,MIMV_C_practice,5,pMIMD_C_v,3,57,1,2635,2,superficial,MIM_IC_vain,,0,345.4545455,,361.9047619,0.549082191,230.3030303
6.2.1,mac,7/19/20,1:25:03,2,3HL8HNGX46AYMN48079XSCJZ0FW9F3,MIMV_C_practice,5,pMIMD_C_v,4,57,1,961,3,self-absorbed,MIM_IC_vain,,0,350,,350,0.549082191,233.3333333
6.2.1,mac,7/19/20,1:25:03,2,3HL8HNGX46AYMN48079XSCJZ0FW9F3,MIMV_C_practice,5,pMIMD_C_m,5,33,1,2188,1,moral,MIM_IC_vain,,0,354.5454545,,339.1304348,0.549082191,236.3636364
6.2.1,mac,7/19/20,1:25:03,2,3HL8HNGX46AYMN48079XSCJZ0FW9F3,MIMV_C_practice,5,pMIMD_C_im,6,36,1,1710,2,unethical,MIM_IC_vain,,0,359.0909091,,329.1666667,0.549082191,239.3939394
6.2.1,mac,7/19/20,1:25:03,2,3HL8HNGX46AYMN48079XSCJZ0FW9F3,MIMV_C_practice,5,pMIMD_C_v,7,57,1,920,5,egocentric,MIM_IC_vain,,0,363.6363636,,320,0.549082191,242.4242424
6.2.1,mac,7/19/20,1:25:03,2,3HL8HNGX46AYMN48079XSCJZ0FW9F3,MIMV_C_practice,5,pMIMD_C_im,8,36,1,1553,1,immoral,MIM_IC_vain,,0,368.1818182,,311.5384615,0.549082191,245.4545455
6.2.1,mac,7/19/20,1:25:03,2,3HL8HNGX46AYMN48079XSCJZ0FW9F3,MIMV_C_practice,5,pMIMD_C_att,9,33,1,992,4,handsome,MIM_IC_vain,,0,372.7272727,,303.7037037,0.549082191,248.4848485
6.2.1,mac,7/19/20,1:25:03,2,3HL8HNGX46AYMN48079XSCJZ0FW9F3,MIMV_C_practice,5,pMIMD_C_m,10,33,1,1040,7,trustworthy,MIM_IC_vain,,0,377.2727273,,296.4285714,0.549082191,251.5151515
6.2.1,mac,7/19/20,1:25:03,2,3HL8HNGX46AYMN48079XSCJZ0FW9F3,MIMV_C_practice,5,pMIMD_C_att,11,33,1,2075,1,attractive,MIM_IC_vain,,0,381.8181818,,289.6551724,0.549082191,254.5454545
6.2.1,mac,7/19/20,1:25:03,2,3HL8HNGX46AYMN48079XSCJZ0FW9F3,MIMV_C_practice,5,pMIMD_C_att,12,33,1,780,2,good-looking,MIM_IC_vain,,0,386.3636364,,283.3333333,0.549082191,257.5757576
6.2.1,mac,7/19/20,1:25:03,2,3HL8HNGX46AYMN48079XSCJZ0FW9F3,MIMV_C_practice,5,pMIMD_C_im,13,36,1,1052,7,untrustworthy,MIM_IC_vain,,0,390.9090909,,277.4193548,0.549082191,260.6060606
6.2.1,mac,7/19/20,1:25:03,2,3HL8HNGX46AYMN48079XSCJZ0FW9F3,MIMV_C_practice,5,pMIMD_C_im,14,36,1,1950,8,corrupt,MIM_IC_vain,,0,395.4545455,,271.875,0.549082191,263.6363636
6.2.1,mac,7/19/20,1:25:03,2,3HL8HNGX46AYMN48079XSCJZ0FW9F3,MIMV_C_practice,5,pMIMD_C_v,15,57,0,12371,8,conceited,MIM_IC_vain,,0,395.4545455,,263.6363636,0.549082191,263.6363636
6.2.1,mac,7/19/20,1:25:03,2,3HL8HNGX46AYMN48079XSCJZ0FW9F3,MIMV_C_practice,5,pMIMD_C_m,16,33,1,1053,2,ethical,MIM_IC_vain,,0,400,,258.8235294,0.549082191,266.6666667
6.2.1,mac,7/19/20,1:25:03,2,3HL8HNGX46AYMN48079XSCJZ0FW9F3,MIMV_C_practice,5,pMIMD_C_m,17,33,1,1127,4,fair,MIM_IC_vain,,0,404.5454545,,254.2857143,0.549082191,269.6969697
6.2.1,mac,7/19/20,1:25:03,2,3HL8HNGX46AYMN48079XSCJZ0FW9F3,MIMV_C_practice,5,pMIMD_C_att,18,33,1,2977,8,stunning,MIM_IC_vain,,0,409.0909091,,250,0.549082191,272.7272727
6.2.1,mac,7/19/20,1:25:03,2,3HL8HNGX46AYMN48079XSCJZ0FW9F3,MIMV_C_test,6,MIMD_C_att,2,33,1,1355,3,gorgeous,MIM_IC_vain,,0,418.1818182,,255.5555556,-1.661491157,262.8571429
6.2.1,mac,7/19/20,1:25:03,2,3HL8HNGX46AYMN48079XSCJZ0FW9F3,MIMV_C_test,6,MIMD_C_v,3,57,1,1295,1,vain,MIM_IC_vain,,0,422.7272727,,258.3333333,-1.366844111,258.3333333
6.2.1,mac,7/19/20,1:25:03,2,3HL8HNGX46AYMN48079XSCJZ0FW9F3,MIMV_C_test,6,MIMD_C_im,4,36,1,1109,6,unprincipled,MIM_IC_vain,,0,427.2727273,,261.1111111,-1.121126218,254.0540541
6.2.1,mac,7/19/20,1:25:03,2,3HL8HNGX46AYMN48079XSCJZ0FW9F3,MIMV_C_test,6,MIMD_C_m,5,33,1,882,6,truthful,MIM_IC_vain,,0,431.8181818,,263.8888889,-0.927034519,250
6.2.1,mac,7/19/20,1:25:03,2,3HL8HNGX46AYMN48079XSCJZ0FW9F3,MIMV_C_test,6,MIMD_C_im,6,36,1,912,3,unfair,MIM_IC_vain,,0,436.3636364,,266.6666667,-0.781399049,246.1538462
6.2.1,mac,7/19/20,1:25:03,2,3HL8HNGX46AYMN48079XSCJZ0FW9F3,MIMV_C_test,6,MIMD_C_v,7,57,1,909,4,prideful,MIM_IC_vain,,0,440.9090909,,269.4444444,-0.669534435,242.5
6.2.1,mac,7/19/20,1:25:03,2,3HL8HNGX46AYMN48079XSCJZ0FW9F3,MIMV_C_test,6,MIMD_C_im,8,36,1,1521,4,deceitful,MIM_IC_vain,,0,445.4545455,,272.2222222,-0.598485423,239.0243902
6.2.1,mac,7/19/20,1:25:03,2,3HL8HNGX46AYMN48079XSCJZ0FW9F3,MIMV_C_test,6,MIMD_C_im,9,36,1,1211,1,immoral,MIM_IC_vain,,0,450,,275,-0.534187784,235.7142857
6.2.1,mac,7/19/20,1:25:03,2,3HL8HNGX46AYMN48079XSCJZ0FW9F3,MIMV_C_test,6,MIMD_C_m,10,33,1,989,8,principled,MIM_IC_vain,,0,454.5454545,,277.7777778,-0.476574776,232.5581395
6.2.1,mac,7/19/20,1:25:03,2,3HL8HNGX46AYMN48079XSCJZ0FW9F3,MIMV_C_test,6,MIMD_C_m,11,33,1,988,5,honest,MIM_IC_vain,,0,459.0909091,,280.5555556,-0.428569067,229.5454545
6.2.1,mac,7/19/20,1:25:03,2,3HL8HNGX46AYMN48079XSCJZ0FW9F3,MIMV_C_test,6,MIMD_C_att,12,33,1,1029,7,beautiful,MIM_IC_vain,,0,463.6363636,,283.3333333,-0.388789024,226.6666667
6.2.1,mac,7/19/20,1:25:03,2,3HL8HNGX46AYMN48079XSCJZ0FW9F3,MIMV_C_test,6,MIMD_C_m,13,33,1,840,2,ethical,MIM_IC_vain,,0,468.1818182,,286.1111111,-0.351197674,223.9130435
6.2.1,mac,7/19/20,1:25:03,2,3HL8HNGX46AYMN48079XSCJZ0FW9F3,MIMV_C_test,6,MIMD_C_m,14,33,1,687,4,fair,MIM_IC_vain,,0,472.7272727,,288.8888889,-0.315892327,221.2765957
6.2.1,mac,7/19/20,1:25:03,2,3HL8HNGX46AYMN48079XSCJZ0FW9F3,MIMV_C_test,6,MIMD_C_im,15,36,1,3182,8,corrupt,MIM_IC_vain,,0,477.2727273,,291.6666667,-0.325088179,218.75
6.2.1,mac,7/19/20,1:25:03,2,3HL8HNGX46AYMN48079XSCJZ0FW9F3,MIMV_C_test,6,MIMD_C_att,16,33,1,812,5,pretty,MIM_IC_vain,,0,481.8181818,,294.4444444,-0.297511102,216.3265306
6.2.1,mac,7/19/20,1:25:03,2,3HL8HNGX46AYMN48079XSCJZ0FW9F3,MIMV_C_test,6,MIMD_C_im,17,36,1,791,7,untrustworthy,MIM_IC_vain,,0,486.3636364,,297.2222222,-0.272600592,214
6.2.1,mac,7/19/20,1:25:03,2,3HL8HNGX46AYMN48079XSCJZ0FW9F3,MIMV_C_test,6,MIMD_C_att,18,33,0,2066,3,gorgeous,MIM_IC_vain,,0,486.3636364,,297.2222222,-0.268079119,209.8039216
6.2.1,mac,7/19/20,1:25:03,2,3HL8HNGX46AYMN48079XSCJZ0FW9F3,MIMV_C_test,6,MIMD_C_v,19,57,1,949,3,self-absorbed,MIM_IC_vain,,0,490.9090909,,300,-0.24919821,207.6923077
6.2.1,mac,7/19/20,1:25:03,2,3HL8HNGX46AYMN48079XSCJZ0FW9F3,MIMV_C_test,6,MIMD_C_att,20,33,1,977,7,beautiful,MIM_IC_vain,,0,495.4545455,,302.7777778,-0.232405702,205.6603774
6.2.1,mac,7/19/20,1:25:03,2,3HL8HNGX46AYMN48079XSCJZ0FW9F3,MIMV_C_test,6,MIMD_C_v,21,57,1,1078,8,conceited,MIM_IC_vain,,0,500,,305.5555556,-0.218327286,203.7037037
6.2.1,mac,7/19/20,1:25:03,2,3HL8HNGX46AYMN48079XSCJZ0FW9F3,MIMV_C_test,6,MIMD_C_m,22,33,1,1018,7,trustworthy,MIM_IC_vain,,0,504.5454545,,308.3333333,-0.204697441,201.8181818
6.2.1,mac,7/19/20,1:25:03,2,3HL8HNGX46AYMN48079XSCJZ0FW9F3,MIMV_C_test,6,MIMD_C_v,23,57,1,883,7,narcissistic,MIM_IC_vain,,0,509.0909091,,311.1111111,-0.190573705,200
6.2.1,mac,7/19/20,1:25:03,2,3HL8HNGX46AYMN48079XSCJZ0FW9F3,MIMV_C_test,6,MIMD_C_m,24,33,1,971,6,truthful,MIM_IC_vain,,0,513.6363636,,313.8888889,-0.178480434,198.245614
6.2.1,mac,7/19/20,1:25:03,2,3HL8HNGX46AYMN48079XSCJZ0FW9F3,MIMV_C_test,6,MIMD_C_att,25,33,1,860,8,stunning,MIM_IC_vain,,0,518.1818182,,316.6666667,-0.166043788,196.5517241
6.2.1,mac,7/19/20,1:25:03,2,3HL8HNGX46AYMN48079XSCJZ0FW9F3,MIMV_C_test,6,MIMD_C_v,26,57,1,1344,2,superficial,MIM_IC_vain,,0,522.7272727,,319.4444444,-0.15950485,194.9152542
6.2.1,mac,7/19/20,1:25:03,2,3HL8HNGX46AYMN48079XSCJZ0FW9F3,MIMV_C_test,6,MIMD_C_v,27,57,1,762,5,egocentric,MIM_IC_vain,,0,527.2727273,,322.2222222,-0.147499691,193.3333333
6.2.1,mac,7/19/20,1:25:03,2,3HL8HNGX46AYMN48079XSCJZ0FW9F3,MIMV_C_test,6,MIMD_C_im,28,36,1,1070,6,unprincipled,MIM_IC_vain,,0,531.8181818,,325,-0.139276114,191.8032787
6.2.1,mac,7/19/20,1:25:03,2,3HL8HNGX46AYMN48079XSCJZ0FW9F3,MIMV_C_test,6,MIMD_C_m,29,33,1,894,3,virtuous,MIM_IC_vain,,0,536.3636364,,327.7777778,-0.12985526,190.3225806
6.2.1,mac,7/19/20,1:25:03,2,3HL8HNGX46AYMN48079XSCJZ0FW9F3,MIMV_C_test,6,MIMD_C_im,30,36,1,1113,5,dishonest,MIM_IC_vain,,0,540.9090909,,330.5555556,-0.123016697,188.8888889
6.2.1,mac,7/19/20,1:25:03,2,3HL8HNGX46AYMN48079XSCJZ0FW9F3,MIMV_C_test,6,MIMD_C_att,31,33,1,728,1,attractive,MIM_IC_vain,,0,545.4545455,,333.3333333,-0.11304542,187.5
6.2.1,mac,7/19/20,1:25:03,2,3HL8HNGX46AYMN48079XSCJZ0FW9F3,MIMV_C_test,6,MIMD_C_att,32,33,1,1177,4,handsome,MIM_IC_vain,,0,550,,336.1111111,-0.107585712,186.1538462
6.2.1,mac,7/19/20,1:25:03,2,3HL8HNGX46AYMN48079XSCJZ0FW9F3,MIMV_C_test,6,MIMD_C_v,33,57,1,1108,6,arrogant,MIM_IC_vain,,0,554.5454545,,338.8888889,-0.101811616,184.8484848
6.2.1,win,7/21/20,18:51:28,6,3ZPBJO59KRGWBPN1A8S28RDTMOMDHH,MIM_I,1,MIM_I_att,3,36,1,1564,7,beautiful,MIM_IC_color,,0,100,,0,,0
6.2.1,win,7/21/20,18:51:28,6,3ZPBJO59KRGWBPN1A8S28RDTMOMDHH,MIM_I,1,MIM_I_im,4,36,1,723,4,deceitful,MIM_IC_color,,0,100,,0,,0
6.2.1,win,7/21/20,18:51:28,6,3ZPBJO59KRGWBPN1A8S28RDTMOMDHH,MIM_I,1,MIM_I_im,5,36,1,637,3,unfair,MIM_IC_color,,0,100,,0,,0
6.2.1,win,7/21/20,18:51:28,6,3ZPBJO59KRGWBPN1A8S28RDTMOMDHH,MIM_I,1,MIM_I_m,6,33,1,662,6,truthful,MIM_IC_color,,0,100,,0,,0
6.2.1,win,7/21/20,18:51:28,6,3ZPBJO59KRGWBPN1A8S28RDTMOMDHH,MIM_I,1,MIM_I_m,7,33,1,448,1,moral,MIM_IC_color,,0,100,,0,,0
6.2.1,win,7/21/20,18:51:28,6,3ZPBJO59KRGWBPN1A8S28RDTMOMDHH,MIM_I,1,MIM_I_att,8,36,1,646,3,gorgeous,MIM_IC_color,,0,100,,0,,0
6.2.1,win,7/21/20,18:51:28,6,3ZPBJO59KRGWBPN1A8S28RDTMOMDHH,MIM_I,1,MIM_I_im,9,36,1,601,8,corrupt,MIM_IC_color,,0,100,,0,,0
6.2.1,win,7/21/20,18:51:28,6,3ZPBJO59KRGWBPN1A8S28RDTMOMDHH,MIM_I,1,MIM_I_att,10,36,0,946,6,sexy,MIM_IC_color,,0,90,,0,,0
6.2.1,win,7/21/20,18:51:28,6,3ZPBJO59KRGWBPN1A8S28RDTMOMDHH,MIM_I,1,MIM_I_m,11,33,0,991,7,trustworthy,MIM_IC_color,,0,81.81818182,,0,,0
6.2.1,win,7/21/20,18:51:28,6,3ZPBJO59KRGWBPN1A8S28RDTMOMDHH,MIMC_I_practice,2,pMIMD_I_c,3,57,0,4669,6,orange,MIM_IC_color,,0,100,,366.6666667,,0
6.2.1,win,7/21/20,18:51:28,6,3ZPBJO59KRGWBPN1A8S28RDTMOMDHH,MIMC_I_practice,2,pMIMD_I_m,4,33,1,1704,8,principled,MIM_IC_color,,0,109.0909091,,300,,0
6.2.1,win,7/21/20,18:51:28,6,3ZPBJO59KRGWBPN1A8S28RDTMOMDHH,MIMC_I_practice,2,pMIMD_I_m,5,33,1,652,5,honest,MIM_IC_color,,0,118.1818182,,260,,0
6.2.1,win,7/21/20,18:51:28,6,3ZPBJO59KRGWBPN1A8S28RDTMOMDHH,MIMC_I_practice,2,pMIMD_I_c,6,57,1,723,5,brown,MIM_IC_color,,0,127.2727273,,233.3333333,,0
6.2.1,win,7/21/20,18:51:28,6,3ZPBJO59KRGWBPN1A8S28RDTMOMDHH,MIMC_I_practice,2,pMIMD_I_im,7,36,1,625,2,unethical,MIM_IC_color,,0,136.3636364,,214.2857143,,0
6.2.1,win,7/21/20,18:51:28,6,3ZPBJO59KRGWBPN1A8S28RDTMOMDHH,MIMC_I_practice,2,pMIMD_I_m,8,33,1,694,4,fair,MIM_IC_color,,0,145.4545455,,200,,0
6.2.1,win,7/21/20,18:51:28,6,3ZPBJO59KRGWBPN1A8S28RDTMOMDHH,MIMC_I_practice,2,pMIMD_I_c,9,57,1,616,2,yellow,MIM_IC_color,,0,154.5454545,,188.8888889,,0
6.2.1,win,7/21/20,18:51:28,6,3ZPBJO59KRGWBPN1A8S28RDTMOMDHH,MIMC_I_practice,2,pMIMD_I_im,10,36,0,798,1,immoral,MIM_IC_color,,0,154.5454545,,170,,0
6.2.1,win,7/21/20,18:51:28,6,3ZPBJO59KRGWBPN1A8S28RDTMOMDHH,MIMC_I_practice,2,pMIMD_I_im,11,36,1,818,6,unprincipled,MIM_IC_color,,0,163.6363636,,163.6363636,,0
6.2.1,win,7/21/20,18:51:28,6,3ZPBJO59KRGWBPN1A8S28RDTMOMDHH,MIMC_I_practice,2,pMIMD_I_m,12,33,1,634,3,virtuous,MIM_IC_color,,0,172.7272727,,158.3333333,,0
6.2.1,win,7/21/20,18:51:28,6,3ZPBJO59KRGWBPN1A8S28RDTMOMDHH,MIMC_I_practice,2,pMIMD_I_att,13,36,1,617,1,attractive,MIM_IC_color,,0,181.8181818,,153.8461538,,0
6.2.1,win,7/21/20,18:51:28,6,3ZPBJO59KRGWBPN1A8S28RDTMOMDHH,MIMC_I_practice,2,pMIMD_I_im,14,36,1,681,5,dishonest,MIM_IC_color,,0,190.9090909,,150,,0
6.2.1,win,7/21/20,18:51:28,6,3ZPBJO59KRGWBPN1A8S28RDTMOMDHH,MIMC_I_practice,2,pMIMD_I_c,15,57,1,582,7,green,MIM_IC_color,,0,200,,146.6666667,,0
6.2.1,win,7/21/20,18:51:28,6,3ZPBJO59KRGWBPN1A8S28RDTMOMDHH,MIMC_I_practice,2,pMIMD_I_att,16,36,1,1315,8,stunning,MIM_IC_color,,0,209.0909091,,143.75,,0
6.2.1,win,7/21/20,18:51:28,6,3ZPBJO59KRGWBPN1A8S28RDTMOMDHH,MIMC_I_practice,2,pMIMD_I_att,17,36,1,564,5,pretty,MIM_IC_color,,0,218.1818182,,141.1764706,,0
6.2.1,win,7/21/20,18:51:28,6,3ZPBJO59KRGWBPN1A8S28RDTMOMDHH,MIMC_I_practice,2,pMIMD_I_att,18,36,1,630,2,good-looking,MIM_IC_color,,0,227.2727273,,138.8888889,,0
6.2.1,win,7/21/20,18:51:28,6,3ZPBJO59KRGWBPN1A8S28RDTMOMDHH,MIMC_I_test,3,MIMD_I_c,2,57,1,841,8,gray,MIM_IC_color,,0,245.4545455,,150,0.964791947,1350
6.2.1,win,7/21/20,18:51:28,6,3ZPBJO59KRGWBPN1A8S28RDTMOMDHH,MIMC_I_test,3,MIMD_I_im,3,36,1,1102,7,untrustworthy,MIM_IC_color,,0,254.5454545,,155.5555556,1.102547997,933.3333333
6.2.1,win,7/21/20,18:51:28,6,3ZPBJO59KRGWBPN1A8S28RDTMOMDHH,MIMC_I_test,3,MIMD_I_c,4,57,1,603,4,purple,MIM_IC_color,,0,263.6363636,,161.1111111,1.063735484,725
6.2.1,win,7/21/20,18:51:28,6,3ZPBJO59KRGWBPN1A8S28RDTMOMDHH,MIMC_I_test,3,MIMD_I_im,5,36,1,575,4,deceitful,MIM_IC_color,,0,272.7272727,,166.6666667,1.042425457,600
6.2.1,win,7/21/20,18:51:28,6,3ZPBJO59KRGWBPN1A8S28RDTMOMDHH,MIMC_I_test,3,MIMD_I_m,6,33,1,613,2,ethical,MIM_IC_color,,0,281.8181818,,172.2222222,1.042478049,516.6666667
6.2.1,win,7/21/20,18:51:28,6,3ZPBJO59KRGWBPN1A8S28RDTMOMDHH,MIMC_I_test,3,MIMD_I_att,7,36,0,1045,4,handsome,MIM_IC_color,,0,281.8181818,,172.2222222,1.108159095,442.8571429
6.2.1,win,7/21/20,18:51:28,6,3ZPBJO59KRGWBPN1A8S28RDTMOMDHH,MIMC_I_test,3,MIMD_I_c,8,57,1,628,1,blue,MIM_IC_color,,0,290.9090909,,177.7777778,1.111833694,400
6.2.1,win,7/21/20,18:51:28,6,3ZPBJO59KRGWBPN1A8S28RDTMOMDHH,MIMC_I_test,3,MIMD_I_m,9,33,1,594,7,trustworthy,MIM_IC_color,,0,300,,183.3333333,1.113509172,366.6666667
6.2.1,win,7/21/20,18:51:28,6,3ZPBJO59KRGWBPN1A8S28RDTMOMDHH,MIMC_I_test,3,MIMD_I_c,10,57,0,663,3,red,MIM_IC_color,,0,300,,183.3333333,1.127152268,330
6.2.1,win,7/21/20,18:51:28,6,3ZPBJO59KRGWBPN1A8S28RDTMOMDHH,MIMC_I_test,3,MIMD_I_att,11,36,0,967,6,sexy,MIM_IC_color,,0,300,,183.3333333,1.169220939,300
6.2.1,win,7/21/20,18:51:28,6,3ZPBJO59KRGWBPN1A8S28RDTMOMDHH,MIMC_I_test,3,MIMD_I_im,12,36,1,815,7,untrustworthy,MIM_IC_color,,0,309.0909091,,188.8888889,1.195945757,283.3333333
6.2.1,win,7/21/20,18:51:28,6,3ZPBJO59KRGWBPN1A8S28RDTMOMDHH,MIMC_I_test,3,MIMD_I_c,13,57,1,570,5,brown,MIM_IC_color,,0,318.1818182,,194.4444444,1.196226701,269.2307692
6.2.1,win,7/21/20,18:51:28,6,3ZPBJO59KRGWBPN1A8S28RDTMOMDHH,MIMC_I_test,3,MIMD_I_att,14,36,0,850,4,handsome,MIM_IC_color,,0,318.1818182,,194.4444444,1.223334666,250
6.2.1,win,7/21/20,18:51:28,6,3ZPBJO59KRGWBPN1A8S28RDTMOMDHH,MIMC_I_test,3,MIMD_I_c,15,57,1,593,4,purple,MIM_IC_color,,0,327.2727273,,200,1.227056097,240
6.2.1,win,7/21/20,18:51:28,6,3ZPBJO59KRGWBPN1A8S28RDTMOMDHH,MIMC_I_test,3,MIMD_I_att,16,36,0,1054,8,stunning,MIM_IC_color,,0,327.2727273,,200,1.259845779,225
6.2.1,win,7/21/20,18:51:28,6,3ZPBJO59KRGWBPN1A8S28RDTMOMDHH,MIMC_I_test,3,MIMD_I_c,17,57,1,598,6,orange,MIM_IC_color,,0,336.3636364,,205.5555556,1.263267961,217.6470588
6.2.1,win,7/21/20,18:51:28,6,3ZPBJO59KRGWBPN1A8S28RDTMOMDHH,MIMC_I_test,3,MIMD_I_att,18,36,1,722,7,beautiful,MIM_IC_color,,0,345.4545455,,211.1111111,1.27726822,211.1111111
6.2.1,win,7/21/20,18:51:28,6,3ZPBJO59KRGWBPN1A8S28RDTMOMDHH,MIMC_I_test,3,MIMD_I_im,19,36,1,574,6,unprincipled,MIM_IC_color,,0,354.5454545,,216.6666667,1.279234036,205.2631579
6.2.1,win,7/21/20,18:51:28,6,3ZPBJO59KRGWBPN1A8S28RDTMOMDHH,MIMC_I_test,3,MIMD_I_im,20,36,1,531,1,immoral,MIM_IC_color,,0,363.6363636,,222.2222222,1.278057517,200
6.2.1,win,7/21/20,18:51:28,6,3ZPBJO59KRGWBPN1A8S28RDTMOMDHH,MIMC_I_test,3,MIMD_I_m,21,33,1,751,2,ethical,MIM_IC_color,,0,372.7272727,,227.7777778,1.293333589,195.2380952
6.2.1,win,7/21/20,18:51:28,6,3ZPBJO59KRGWBPN1A8S28RDTMOMDHH,MIMC_I_test,3,MIMD_I_c,22,57,0,617,3,red,MIM_IC_color,,0,372.7272727,,227.7777778,1.299673888,186.3636364
6.2.1,win,7/21/20,18:51:28,6,3ZPBJO59KRGWBPN1A8S28RDTMOMDHH,MIMC_I_test,3,MIMD_I_m,23,33,0,1144,4,fair,MIM_IC_color,,0,372.7272727,,227.7777778,1.321695695,178.2608696
6.2.1,win,7/21/20,18:51:28,6,3ZPBJO59KRGWBPN1A8S28RDTMOMDHH,MIMC_I_test,3,MIMD_I_att,24,36,1,1198,3,gorgeous,MIM_IC_color,,0,381.8181818,,233.3333333,1.341695387,175
6.2.1,win,7/21/20,18:51:28,6,3ZPBJO59KRGWBPN1A8S28RDTMOMDHH,MIMC_I_test,3,MIMD_I_im,25,36,1,543,2,unethical,MIM_IC_color,,0,390.9090909,,238.8888889,1.340448995,172
6.2.1,win,7/21/20,18:51:28,6,3ZPBJO59KRGWBPN1A8S28RDTMOMDHH,MIMC_I_test,3,MIMD_I_att,26,36,1,549,5,pretty,MIM_IC_color,,0,400,,244.4444444,1.340246087,169.2307692
6.2.1,win,7/21/20,18:51:28,6,3ZPBJO59KRGWBPN1A8S28RDTMOMDHH,MIMC_I_test,3,MIMD_I_att,27,36,1,490,1,attractive,MIM_IC_color,,0,409.0909091,,250,1.336189707,166.6666667
6.2.1,win,7/21/20,18:51:28,6,3ZPBJO59KRGWBPN1A8S28RDTMOMDHH,MIMC_I_test,3,MIMD_I_m,28,33,1,625,8,principled,MIM_IC_color,,0,418.1818182,,255.5555556,1.341736647,164.2857143
6.2.1,win,7/21/20,18:51:28,6,3ZPBJO59KRGWBPN1A8S28RDTMOMDHH,MIMC_I_test,3,MIMD_I_m,29,33,1,839,3,virtuous,MIM_IC_color,,0,427.2727273,,261.1111111,1.35597294,162.0689655
6.2.1,win,7/21/20,18:51:28,6,3ZPBJO59KRGWBPN1A8S28RDTMOMDHH,MIMC_I_test,3,MIMD_I_im,30,36,1,645,5,dishonest,MIM_IC_color,,0,436.3636364,,266.6666667,1.362212777,160
6.2.1,win,7/21/20,18:51:28,6,3ZPBJO59KRGWBPN1A8S28RDTMOMDHH,MIMC_I_test,3,MIMD_I_im,31,36,1,457,3,unfair,MIM_IC_color,,0,445.4545455,,272.2222222,1.356864731,158.0645161
6.2.1,win,7/21/20,18:51:28,6,3ZPBJO59KRGWBPN1A8S28RDTMOMDHH,MIMC_I_test,3,MIMD_I_m,32,33,1,451,5,honest,MIM_IC_color,,0,454.5454545,,277.7777778,1.351779911,156.25
6.2.1,win,7/21/20,18:51:28,6,3ZPBJO59KRGWBPN1A8S28RDTMOMDHH,MIMC_I_test,3,MIMD_I_m,33,33,0,569,1,moral,MIM_IC_color,,0,454.5454545,,277.7777778,1.354647967,151.5151515
6.2.1,win,7/21/20,18:51:28,6,3ZPBJO59KRGWBPN1A8S28RDTMOMDHH,MIM_C,4,MIM_C_im,3,36,1,1026,8,corrupt,MIM_IC_color,,0,378.5714286,,294.4444444,1.354647967,160.6060606
6.2.1,win,7/21/20,18:51:28,6,3ZPBJO59KRGWBPN1A8S28RDTMOMDHH,MIM_C,4,MIM_C_att,4,33,1,504,2,good-looking,MIM_IC_color,,0,360,,300,1.354647967,163.6363636
6.2.1,win,7/21/20,18:51:28,6,3ZPBJO59KRGWBPN1A8S28RDTMOMDHH,MIM_C,4,MIM_C_im,5,36,0,539,3,unfair,MIM_IC_color,,0,337.5,,300,1.354647967,163.6363636
6.2.1,win,7/21/20,18:51:28,6,3ZPBJO59KRGWBPN1A8S28RDTMOMDHH,MIM_C,4,MIM_C_m,6,33,0,1179,6,truthful,MIM_IC_color,,0,317.6470588,,300,1.354647967,163.6363636
6.2.1,win,7/21/20,18:51:28,6,3ZPBJO59KRGWBPN1A8S28RDTMOMDHH,MIM_C,4,MIM_C_im,7,36,1,490,4,deceitful,MIM_IC_color,,0,305.5555556,,305.5555556,1.354647967,166.6666667
6.2.1,win,7/21/20,18:51:28,6,3ZPBJO59KRGWBPN1A8S28RDTMOMDHH,MIM_C,4,MIM_C_att,8,33,1,749,3,gorgeous,MIM_IC_color,,0,294.7368421,,311.1111111,1.354647967,169.6969697
6.2.1,win,7/21/20,18:51:28,6,3ZPBJO59KRGWBPN1A8S28RDTMOMDHH,MIM_C,4,MIM_C_m,9,33,1,692,4,fair,MIM_IC_color,,0,285,,316.6666667,1.354647967,172.7272727
6.2.1,win,7/21/20,18:51:28,6,3ZPBJO59KRGWBPN1A8S28RDTMOMDHH,MIM_C,4,MIM_C_att,10,33,1,561,5,pretty,MIM_IC_color,,0,276.1904762,,322.2222222,1.354647967,175.7575758
6.2.1,win,7/21/20,18:51:28,6,3ZPBJO59KRGWBPN1A8S28RDTMOMDHH,MIM_C,4,MIM_C_m,11,33,1,764,2,ethical,MIM_IC_color,,0,268.1818182,,327.7777778,1.354647967,178.7878788
6.2.1,win,7/21/20,18:51:28,6,3ZPBJO59KRGWBPN1A8S28RDTMOMDHH,MIMC_C_practice,5,pMIMD_C_m,3,33,1,860,7,trustworthy,MIM_IC_color,,0,281.8181818,,295.2380952,1.354647967,187.8787879
6.2.1,win,7/21/20,18:51:28,6,3ZPBJO59KRGWBPN1A8S28RDTMOMDHH,MIMC_C_practice,5,pMIMD_C_im,4,36,1,451,6,unprincipled,MIM_IC_color,,0,286.3636364,,286.3636364,1.354647967,190.9090909
6.2.1,win,7/21/20,18:51:28,6,3ZPBJO59KRGWBPN1A8S28RDTMOMDHH,MIMC_C_practice,5,pMIMD_C_att,5,33,1,510,1,attractive,MIM_IC_color,,0,290.9090909,,278.2608696,1.354647967,193.9393939
6.2.1,win,7/21/20,18:51:28,6,3ZPBJO59KRGWBPN1A8S28RDTMOMDHH,MIMC_C_practice,5,pMIMD_C_c,6,57,0,614,7,green,MIM_IC_color,,0,290.9090909,,266.6666667,1.354647967,193.9393939
6.2.1,win,7/21/20,18:51:28,6,3ZPBJO59KRGWBPN1A8S28RDTMOMDHH,MIMC_C_practice,5,pMIMD_C_att,7,33,1,921,8,stunning,MIM_IC_color,,0,295.4545455,,260,1.354647967,196.969697
6.2.1,win,7/21/20,18:51:28,6,3ZPBJO59KRGWBPN1A8S28RDTMOMDHH,MIMC_C_practice,5,pMIMD_C_c,8,57,0,766,1,blue,MIM_IC_color,,0,295.4545455,,250,1.354647967,196.969697
6.2.1,win,7/21/20,18:51:28,6,3ZPBJO59KRGWBPN1A8S28RDTMOMDHH,MIMC_C_practice,5,pMIMD_C_m,9,33,1,639,1,moral,MIM_IC_color,,0,300,,244.4444444,1.354647967,200
6.2.1,win,7/21/20,18:51:28,6,3ZPBJO59KRGWBPN1A8S28RDTMOMDHH,MIMC_C_practice,5,pMIMD_C_im,10,36,1,580,8,corrupt,MIM_IC_color,,0,304.5454545,,239.2857143,1.354647967,203.030303
6.2.1,win,7/21/20,18:51:28,6,3ZPBJO59KRGWBPN1A8S28RDTMOMDHH,MIMC_C_practice,5,pMIMD_C_im,11,36,1,482,7,untrustworthy,MIM_IC_color,,0,309.0909091,,234.4827586,1.354647967,206.0606061
6.2.1,win,7/21/20,18:51:28,6,3ZPBJO59KRGWBPN1A8S28RDTMOMDHH,MIMC_C_practice,5,pMIMD_C_att,12,33,0,724,7,beautiful,MIM_IC_color,,0,309.0909091,,226.6666667,1.354647967,206.0606061
6.2.1,win,7/21/20,18:51:28,6,3ZPBJO59KRGWBPN1A8S28RDTMOMDHH,MIMC_C_practice,5,pMIMD_C_m,13,33,1,904,3,virtuous,MIM_IC_color,,0,313.6363636,,222.5806452,1.354647967,209.0909091
6.2.1,win,7/21/20,18:51:28,6,3ZPBJO59KRGWBPN1A8S28RDTMOMDHH,MIMC_C_practice,5,pMIMD_C_m,14,33,1,491,5,honest,MIM_IC_color,,0,318.1818182,,218.75,1.354647967,212.1212121
6.2.1,win,7/21/20,18:51:28,6,3ZPBJO59KRGWBPN1A8S28RDTMOMDHH,MIMC_C_practice,5,pMIMD_C_im,15,36,1,530,1,immoral,MIM_IC_color,,0,322.7272727,,215.1515152,1.354647967,215.1515152
6.2.1,win,7/21/20,18:51:28,6,3ZPBJO59KRGWBPN1A8S28RDTMOMDHH,MIMC_C_practice,5,pMIMD_C_att,16,33,1,453,6,sexy,MIM_IC_color,,0,327.2727273,,211.7647059,1.354647967,218.1818182
6.2.1,win,7/21/20,18:51:28,6,3ZPBJO59KRGWBPN1A8S28RDTMOMDHH,MIMC_C_practice,5,pMIMD_C_c,17,57,0,552,2,yellow,MIM_IC_color,,0,327.2727273,,205.7142857,1.354647967,218.1818182
6.2.1,win,7/21/20,18:51:28,6,3ZPBJO59KRGWBPN1A8S28RDTMOMDHH,MIMC_C_practice,5,pMIMD_C_c,18,57,1,534,8,gray,MIM_IC_color,,0,331.8181818,,202.7777778,1.354647967,221.2121212
6.2.1,win,7/21/20,18:51:28,6,3ZPBJO59KRGWBPN1A8S28RDTMOMDHH,MIMC_C_test,6,MIMD_C_m,2,33,1,770,6,truthful,MIM_IC_color,,0,340.9090909,,208.3333333,0.110709902,214.2857143
6.2.1,win,7/21/20,18:51:28,6,3ZPBJO59KRGWBPN1A8S28RDTMOMDHH,MIMC_C_test,6,MIMD_C_c,3,57,1,534,6,orange,MIM_IC_color,,0,345.4545455,,211.1111111,0.274336177,211.1111111
6.2.1,win,7/21/20,18:51:28,6,3ZPBJO59KRGWBPN1A8S28RDTMOMDHH,MIMC_C_test,6,MIMD_C_m,4,33,1,668,8,principled,MIM_IC_color,,0,350,,213.8888889,0.276506118,208.1081081
6.2.1,win,7/21/20,18:51:28,6,3ZPBJO59KRGWBPN1A8S28RDTMOMDHH,MIMC_C_test,6,MIMD_C_m,5,33,1,648,6,truthful,MIM_IC_color,,0,354.5454545,,216.6666667,0.28923923,205.2631579
6.2.1,win,7/21/20,18:51:28,6,3ZPBJO59KRGWBPN1A8S28RDTMOMDHH,MIMC_C_test,6,MIMD_C_im,6,36,1,593,5,dishonest,MIM_IC_color,,0,359.0909091,,219.4444444,0.32207404,202.5641026
6.2.1,win,7/21/20,18:51:28,6,3ZPBJO59KRGWBPN1A8S28RDTMOMDHH,MIMC_C_test,6,MIMD_C_att,7,33,1,569,4,handsome,MIM_IC_color,,0,363.6363636,,222.2222222,0.355576796,200
6.2.1,win,7/21/20,18:51:28,6,3ZPBJO59KRGWBPN1A8S28RDTMOMDHH,MIMC_C_test,6,MIMD_C_c,8,57,0,635,1,blue,MIM_IC_color,,0,363.6363636,,222.2222222,0.361279528,195.1219512
6.2.1,win,7/21/20,18:51:28,6,3ZPBJO59KRGWBPN1A8S28RDTMOMDHH,MIMC_C_test,6,MIMD_C_im,9,36,1,960,2,unethical,MIM_IC_color,,0,368.1818182,,225,0.27033716,192.8571429
6.2.1,win,7/21/20,18:51:28,6,3ZPBJO59KRGWBPN1A8S28RDTMOMDHH,MIMC_C_test,6,MIMD_C_att,10,33,1,625,2,good-looking,MIM_IC_color,,0,372.7272727,,227.7777778,0.286535192,190.6976744
6.2.1,win,7/21/20,18:51:28,6,3ZPBJO59KRGWBPN1A8S28RDTMOMDHH,MIMC_C_test,6,MIMD_C_c,11,57,1,495,2,yellow,MIM_IC_color,,0,377.2727273,,230.5555556,0.331150014,188.6363636
6.2.1,win,7/21/20,18:51:28,6,3ZPBJO59KRGWBPN1A8S28RDTMOMDHH,MIMC_C_test,6,MIMD_C_m,12,33,1,570,1,moral,MIM_IC_color,,0,381.8181818,,233.3333333,0.353167827,186.6666667
6.2.1,win,7/21/20,18:51:28,6,3ZPBJO59KRGWBPN1A8S28RDTMOMDHH,MIMC_C_test,6,MIMD_C_m,13,33,0,644,5,honest,MIM_IC_color,,0,381.8181818,,233.3333333,0.357563316,182.6086957
6.2.1,win,7/21/20,18:51:28,6,3ZPBJO59KRGWBPN1A8S28RDTMOMDHH,MIMC_C_test,6,MIMD_C_att,14,33,0,866,6,sexy,MIM_IC_color,,0,381.8181818,,233.3333333,0.317556905,178.7234043
6.2.1,win,7/21/20,18:51:28,6,3ZPBJO59KRGWBPN1A8S28RDTMOMDHH,MIMC_C_test,6,MIMD_C_m,15,33,1,690,3,virtuous,MIM_IC_color,,0,386.3636364,,236.1111111,0.31576054,177.0833333
6.2.1,win,7/21/20,18:51:28,6,3ZPBJO59KRGWBPN1A8S28RDTMOMDHH,MIMC_C_test,6,MIMD_C_im,16,36,1,655,1,immoral,MIM_IC_color,,0,390.9090909,,238.8888889,0.320566984,175.5102041
6.2.1,win,7/21/20,18:51:28,6,3ZPBJO59KRGWBPN1A8S28RDTMOMDHH,MIMC_C_test,6,MIMD_C_m,17,33,1,517,7,trustworthy,MIM_IC_color,,0,395.4545455,,241.6666667,0.347287319,174
6.2.1,win,7/21/20,18:51:28,6,3ZPBJO59KRGWBPN1A8S28RDTMOMDHH,MIMC_C_test,6,MIMD_C_att,18,33,1,549,8,stunning,MIM_IC_color,,0,400,,244.4444444,0.366843825,172.5490196
6.2.1,win,7/21/20,18:51:28,6,3ZPBJO59KRGWBPN1A8S28RDTMOMDHH,MIMC_C_test,6,MIMD_C_att,19,33,1,490,5,pretty,MIM_IC_color,,0,404.5454545,,247.2222222,0.393070193,171.1538462
6.2.1,win,7/21/20,18:51:28,6,3ZPBJO59KRGWBPN1A8S28RDTMOMDHH,MIMC_C_test,6,MIMD_C_im,20,36,1,475,6,unprincipled,MIM_IC_color,,0,409.0909091,,250,0.41908305,169.8113208
6.2.1,win,7/21/20,18:51:28,6,3ZPBJO59KRGWBPN1A8S28RDTMOMDHH,MIMC_C_test,6,MIMD_C_m,21,33,1,555,8,principled,MIM_IC_color,,0,413.6363636,,252.7777778,0.433044542,168.5185185
6.2.1,win,7/21/20,18:51:28,6,3ZPBJO59KRGWBPN1A8S28RDTMOMDHH,MIMC_C_test,6,MIMD_C_c,22,57,1,437,7,green,MIM_IC_color,,0,418.1818182,,255.5555556,0.460101284,167.2727273
6.2.1,win,7/21/20,18:51:28,6,3ZPBJO59KRGWBPN1A8S28RDTMOMDHH,MIMC_C_test,6,MIMD_C_im,23,36,0,716,3,unfair,MIM_IC_color,,0,418.1818182,,255.5555556,0.452002002,164.2857143
6.2.1,win,7/21/20,18:51:28,6,3ZPBJO59KRGWBPN1A8S28RDTMOMDHH,MIMC_C_test,6,MIMD_C_att,24,33,1,931,7,beautiful,MIM_IC_color,,0,422.7272727,,258.3333333,0.416190086,163.1578947
6.2.1,win,7/21/20,18:51:28,6,3ZPBJO59KRGWBPN1A8S28RDTMOMDHH,MIMC_C_test,6,MIMD_C_c,25,57,1,511,4,purple,MIM_IC_color,,0,427.2727273,,261.1111111,0.433694327,162.0689655
6.2.1,win,7/21/20,18:51:28,6,3ZPBJO59KRGWBPN1A8S28RDTMOMDHH,MIMC_C_test,6,MIMD_C_att,26,33,0,658,3,gorgeous,MIM_IC_color,,0,427.2727273,,261.1111111,0.43436464,159.3220339
6.2.1,win,7/21/20,18:51:28,6,3ZPBJO59KRGWBPN1A8S28RDTMOMDHH,MIMC_C_test,6,MIMD_C_im,27,36,1,558,8,corrupt,MIM_IC_color,,0,431.8181818,,263.8888889,0.445788462,158.3333333
6.2.1,win,7/21/20,18:51:28,6,3ZPBJO59KRGWBPN1A8S28RDTMOMDHH,MIMC_C_test,6,MIMD_C_att,28,33,1,590,1,attractive,MIM_IC_color,,0,436.3636364,,266.6666667,0.453486582,157.3770492
6.2.1,win,7/21/20,18:51:28,6,3ZPBJO59KRGWBPN1A8S28RDTMOMDHH,MIMC_C_test,6,MIMD_C_c,29,57,1,523,3,red,MIM_IC_color,,0,440.9090909,,269.4444444,0.467348924,156.4516129
6.2.1,win,7/21/20,18:51:28,6,3ZPBJO59KRGWBPN1A8S28RDTMOMDHH,MIMC_C_test,6,MIMD_C_c,30,57,1,495,8,gray,MIM_IC_color,,0,445.4545455,,272.2222222,0.483074308,155.5555556
6.2.1,win,7/21/20,18:51:28,6,3ZPBJO59KRGWBPN1A8S28RDTMOMDHH,MIMC_C_test,6,MIMD_C_c,31,57,1,425,5,brown,MIM_IC_color,,0,450,,275,0.503820542,154.6875
6.2.1,win,7/21/20,18:51:28,6,3ZPBJO59KRGWBPN1A8S28RDTMOMDHH,MIMC_C_test,6,MIMD_C_im,32,36,0,578,2,unethical,MIM_IC_color,,0,450,,275,0.510830999,152.3076923
6.2.1,win,7/21/20,18:51:28,6,3ZPBJO59KRGWBPN1A8S28RDTMOMDHH,MIMC_C_test,6,MIMD_C_im,33,36,1,677,5,dishonest,MIM_IC_color,,0,454.5454545,,277.7777778,0.50867228,151.5151515
6.2.1,win,7/21/20,18:50:39,1,30X31N5D655N3RY51SDZM4CPAW6SAF,MIM_C,1,MIM_C_m,3,33,1,1186,1,moral,MIM_CI_vain,,0,100,,0,,0
6.2.1,win,7/21/20,18:50:39,1,30X31N5D655N3RY51SDZM4CPAW6SAF,MIM_C,1,MIM_C_m,4,33,1,862,2,ethical,MIM_CI_vain,,0,100,,0,,0
6.2.1,win,7/21/20,18:50:39,1,30X31N5D655N3RY51SDZM4CPAW6SAF,MIM_C,1,MIM_C_im,5,36,1,791,2,unethical,MIM_CI_vain,,0,100,,0,,0
6.2.1,win,7/21/20,18:50:39,1,30X31N5D655N3RY51SDZM4CPAW6SAF,MIM_C,1,MIM_C_m,6,33,1,758,8,principled,MIM_CI_vain,,0,100,,0,,0
6.2.1,win,7/21/20,18:50:39,1,30X31N5D655N3RY51SDZM4CPAW6SAF,MIM_C,1,MIM_C_att,7,33,1,715,6,sexy,MIM_CI_vain,,0,100,,0,,0
6.2.1,win,7/21/20,18:50:39,1,30X31N5D655N3RY51SDZM4CPAW6SAF,MIM_C,1,MIM_C_im,8,36,1,686,8,corrupt,MIM_CI_vain,,0,100,,0,,0
6.2.1,win,7/21/20,18:50:39,1,30X31N5D655N3RY51SDZM4CPAW6SAF,MIM_C,1,MIM_C_im,9,36,1,611,5,dishonest,MIM_CI_vain,,0,100,,0,,0
6.2.1,win,7/21/20,18:50:39,1,30X31N5D655N3RY51SDZM4CPAW6SAF,MIM_C,1,MIM_C_att,10,33,1,590,2,good-looking,MIM_CI_vain,,0,100,,0,,0
6.2.1,win,7/21/20,18:50:39,1,30X31N5D655N3RY51SDZM4CPAW6SAF,MIM_C,1,MIM_C_att,11,33,1,591,4,handsome,MIM_CI_vain,,0,100,,0,,0
6.2.1,win,7/21/20,18:50:39,1,30X31N5D655N3RY51SDZM4CPAW6SAF,MIMV_C_practice,2,pMIMD_C_att,3,33,1,844,5,pretty,MIM_CI_vain,,0,127.2727273,,466.6666667,,0
6.2.1,win,7/21/20,18:50:39,1,30X31N5D655N3RY51SDZM4CPAW6SAF,MIMV_C_practice,2,pMIMD_C_im,4,36,1,670,1,immoral,MIM_CI_vain,,0,136.3636364,,375,,0
6.2.1,win,7/21/20,18:50:39,1,30X31N5D655N3RY51SDZM4CPAW6SAF,MIMV_C_practice,2,pMIMD_C_att,5,33,0,1870,8,stunning,MIM_CI_vain,,0,136.3636364,,300,,0
6.2.1,win,7/21/20,18:50:39,1,30X31N5D655N3RY51SDZM4CPAW6SAF,MIMV_C_practice,2,pMIMD_C_att,6,33,1,599,1,attractive,MIM_CI_vain,,0,145.4545455,,266.6666667,,0
6.2.1,win,7/21/20,18:50:39,1,30X31N5D655N3RY51SDZM4CPAW6SAF,MIMV_C_practice,2,pMIMD_C_m,7,33,0,1047,7,trustworthy,MIM_CI_vain,,0,145.4545455,,228.5714286,,0
6.2.1,win,7/21/20,18:50:39,1,30X31N5D655N3RY51SDZM4CPAW6SAF,MIMV_C_practice,2,pMIMD_C_v,8,57,0,2083,5,egocentric,MIM_CI_vain,,0,145.4545455,,200,,0
6.2.1,win,7/21/20,18:50:39,1,30X31N5D655N3RY51SDZM4CPAW6SAF,MIMV_C_practice,2,pMIMD_C_m,9,33,1,1275,3,virtuous,MIM_CI_vain,,0,154.5454545,,188.8888889,,0
6.2.1,win,7/21/20,18:50:39,1,30X31N5D655N3RY51SDZM4CPAW6SAF,MIMV_C_practice,2,pMIMD_C_v,10,57,0,1875,7,narcissistic,MIM_CI_vain,,0,154.5454545,,170,,0
6.2.1,win,7/21/20,18:50:39,1,30X31N5D655N3RY51SDZM4CPAW6SAF,MIMV_C_practice,2,pMIMD_C_m,11,33,1,756,5,honest,MIM_CI_vain,,0,163.6363636,,163.6363636,,0
6.2.1,win,7/21/20,18:50:39,1,30X31N5D655N3RY51SDZM4CPAW6SAF,MIMV_C_practice,2,pMIMD_C_im,12,36,1,1175,4,deceitful,MIM_CI_vain,,0,172.7272727,,158.3333333,,0
6.2.1,win,7/21/20,18:50:39,1,30X31N5D655N3RY51SDZM4CPAW6SAF,MIMV_C_practice,2,pMIMD_C_m,13,33,1,931,4,fair,MIM_CI_vain,,0,181.8181818,,153.8461538,,0
6.2.1,win,7/21/20,18:50:39,1,30X31N5D655N3RY51SDZM4CPAW6SAF,MIMV_C_practice,2,pMIMD_C_im,14,36,1,701,3,unfair,MIM_CI_vain,,0,190.9090909,,150,,0
6.2.1,win,7/21/20,18:50:39,1,30X31N5D655N3RY51SDZM4CPAW6SAF,MIMV_C_practice,2,pMIMD_C_v,15,57,0,1546,3,self-absorbed,MIM_CI_vain,,0,190.9090909,,140,,0
6.2.1,win,7/21/20,18:50:39,1,30X31N5D655N3RY51SDZM4CPAW6SAF,MIMV_C_practice,2,pMIMD_C_v,16,57,0,2112,1,vain,MIM_CI_vain,,0,190.9090909,,131.25,,0
6.2.1,win,7/21/20,18:50:39,1,30X31N5D655N3RY51SDZM4CPAW6SAF,MIMV_C_practice,2,pMIMD_C_att,17,33,1,797,3,gorgeous,MIM_CI_vain,,0,200,,129.4117647,,0
6.2.1,win,7/21/20,18:50:39,1,30X31N5D655N3RY51SDZM4CPAW6SAF,MIMV_C_practice,2,pMIMD_C_im,18,36,1,758,6,unprincipled,MIM_CI_vain,,0,209.0909091,,127.7777778,,0
6.2.1,win,7/21/20,18:50:39,1,30X31N5D655N3RY51SDZM4CPAW6SAF,MIMV_C_test,3,MIMD_C_m,2,33,1,934,6,truthful,MIM_CI_vain,,0,227.2727273,,138.8888889,-0.760353643,1250
6.2.1,win,7/21/20,18:50:39,1,30X31N5D655N3RY51SDZM4CPAW6SAF,MIMV_C_test,3,MIMD_C_v,3,57,0,1312,4,prideful,MIM_CI_vain,,0,227.2727273,,138.8888889,-0.768630948,833.3333333
6.2.1,win,7/21/20,18:50:39,1,30X31N5D655N3RY51SDZM4CPAW6SAF,MIMV_C_test,3,MIMD_C_im,4,36,1,934,7,untrustworthy,MIM_CI_vain,,0,236.3636364,,144.4444444,-0.739066908,650
6.2.1,win,7/21/20,18:50:39,1,30X31N5D655N3RY51SDZM4CPAW6SAF,MIMV_C_test,3,MIMD_C_v,5,57,0,1740,6,arrogant,MIM_CI_vain,,0,236.3636364,,144.4444444,-0.779030504,520
6.2.1,win,7/21/20,18:50:39,1,30X31N5D655N3RY51SDZM4CPAW6SAF,MIMV_C_test,3,MIMD_C_m,6,33,1,686,2,ethical,MIM_CI_vain,,0,245.4545455,,150,-0.745659654,450
6.2.1,win,7/21/20,18:50:39,1,30X31N5D655N3RY51SDZM4CPAW6SAF,MIMV_C_test,3,MIMD_C_v,7,57,1,1058,8,conceited,MIM_CI_vain,,0,254.5454545,,155.5555556,-0.746126542,400
6.2.1,win,7/21/20,18:50:39,1,30X31N5D655N3RY51SDZM4CPAW6SAF,MIMV_C_test,3,MIMD_C_im,8,36,1,670,7,untrustworthy,MIM_CI_vain,,0,263.6363636,,161.1111111,-0.727149138,362.5
6.2.1,win,7/21/20,18:50:39,1,30X31N5D655N3RY51SDZM4CPAW6SAF,MIMV_C_test,3,MIMD_C_m,9,33,1,502,7,trustworthy,MIM_CI_vain,,0,272.7272727,,166.6666667,-0.704092234,333.3333333
6.2.1,win,7/21/20,18:50:39,1,30X31N5D655N3RY51SDZM4CPAW6SAF,MIMV_C_test,3,MIMD_C_im,10,36,1,993,6,unprincipled,MIM_CI_vain,,0,281.8181818,,172.2222222,-0.710536724,310
6.2.1,win,7/21/20,18:50:39,1,30X31N5D655N3RY51SDZM4CPAW6SAF,MIMV_C_test,3,MIMD_C_att,11,33,1,543,7,beautiful,MIM_CI_vain,,0,290.9090909,,177.7777778,-0.69671547,290.9090909
6.2.1,win,7/21/20,18:50:39,1,30X31N5D655N3RY51SDZM4CPAW6SAF,MIMV_C_test,3,MIMD_C_v,12,57,0,1554,2,superficial,MIM_CI_vain,,0,290.9090909,,177.7777778,-0.726336629,266.6666667
6.2.1,win,7/21/20,18:50:39,1,30X31N5D655N3RY51SDZM4CPAW6SAF,MIMV_C_test,3,MIMD_C_im,13,36,1,880,4,deceitful,MIM_CI_vain,,0,300,,183.3333333,-0.729657158,253.8461538
6.2.1,win,7/21/20,18:50:39,1,30X31N5D655N3RY51SDZM4CPAW6SAF,MIMV_C_test,3,MIMD_C_m,14,33,1,573,5,honest,MIM_CI_vain,,0,309.0909091,,188.8888889,-0.721073134,242.8571429
6.2.1,win,7/21/20,18:50:39,1,30X31N5D655N3RY51SDZM4CPAW6SAF,MIMV_C_test,3,MIMD_C_im,15,36,1,686,1,immoral,MIM_CI_vain,,0,318.1818182,,194.4444444,-0.718690766,233.3333333
6.2.1,win,7/21/20,18:50:39,1,30X31N5D655N3RY51SDZM4CPAW6SAF,MIMV_C_test,3,MIMD_C_im,16,36,1,804,2,unethical,MIM_CI_vain,,0,327.2727273,,200,-0.721635308,225
6.2.1,win,7/21/20,18:50:39,1,30X31N5D655N3RY51SDZM4CPAW6SAF,MIMV_C_test,3,MIMD_C_m,17,33,1,587,6,truthful,MIM_CI_vain,,0,336.3636364,,205.5555556,-0.717148269,217.6470588
6.2.1,win,7/21/20,18:50:39,1,30X31N5D655N3RY51SDZM4CPAW6SAF,MIMV_C_test,3,MIMD_C_m,18,33,1,868,3,virtuous,MIM_CI_vain,,0,345.4545455,,211.1111111,-0.723274513,211.1111111
6.2.1,win,7/21/20,18:50:39,1,30X31N5D655N3RY51SDZM4CPAW6SAF,MIMV_C_test,3,MIMD_C_m,19,33,1,708,4,fair,MIM_CI_vain,,0,354.5454545,,216.6666667,-0.724306253,205.2631579
6.2.1,win,7/21/20,18:50:39,1,30X31N5D655N3RY51SDZM4CPAW6SAF,MIMV_C_test,3,MIMD_C_att,20,33,0,1965,3,gorgeous,MIM_CI_vain,,0,354.5454545,,216.6666667,-0.756116866,195
6.2.1,win,7/21/20,18:50:39,1,30X31N5D655N3RY51SDZM4CPAW6SAF,MIMV_C_test,3,MIMD_C_att,21,33,1,623,6,sexy,MIM_CI_vain,,0,363.6363636,,222.2222222,-0.753904109,190.4761905
6.2.1,win,7/21/20,18:50:39,1,30X31N5D655N3RY51SDZM4CPAW6SAF,MIMV_C_test,3,MIMD_C_v,22,57,0,1835,5,egocentric,MIM_CI_vain,,0,363.6363636,,222.2222222,-0.781174731,181.8181818
6.2.1,win,7/21/20,18:50:39,1,30X31N5D655N3RY51SDZM4CPAW6SAF,MIMV_C_test,3,MIMD_C_m,23,33,1,792,1,moral,MIM_CI_vain,,0,372.7272727,,227.7777778,-0.78401796,178.2608696
6.2.1,win,7/21/20,18:50:39,1,30X31N5D655N3RY51SDZM4CPAW6SAF,MIMV_C_test,3,MIMD_C_im,24,36,1,831,8,corrupt,MIM_CI_vain,,0,381.8181818,,233.3333333,-0.788165364,175
6.2.1,win,7/21/20,18:50:39,1,30X31N5D655N3RY51SDZM4CPAW6SAF,MIMV_C_test,3,MIMD_C_v,25,57,1,829,1,vain,MIM_CI_vain,,0,390.9090909,,238.8888889,-0.792375331,172
6.2.1,win,7/21/20,18:50:39,1,30X31N5D655N3RY51SDZM4CPAW6SAF,MIMV_C_test,3,MIMD_C_att,26,33,1,831,2,good-looking,MIM_CI_vain,,0,400,,244.4444444,-0.79673579,169.2307692
6.2.1,win,7/21/20,18:50:39,1,30X31N5D655N3RY51SDZM4CPAW6SAF,MIMV_C_test,3,MIMD_C_att,27,33,1,664,8,stunning,MIM_CI_vain,,0,409.0909091,,250,-0.796691104,166.6666667
6.2.1,win,7/21/20,18:50:39,1,30X31N5D655N3RY51SDZM4CPAW6SAF,MIMV_C_test,3,MIMD_C_att,28,33,1,546,7,beautiful,MIM_CI_vain,,0,418.1818182,,255.5555556,-0.793622885,164.2857143
6.2.1,win,7/21/20,18:50:39,1,30X31N5D655N3RY51SDZM4CPAW6SAF,MIMV_C_test,3,MIMD_C_att,29,33,1,512,1,attractive,MIM_CI_vain,,0,427.2727273,,261.1111111,-0.790007025,162.0689655
6.2.1,win,7/21/20,18:50:39,1,30X31N5D655N3RY51SDZM4CPAW6SAF,MIMV_C_test,3,MIMD_C_im,30,36,1,596,3,unfair,MIM_CI_vain,,0,436.3636364,,266.6666667,-0.789094408,160
6.2.1,win,7/21/20,18:50:39,1,30X31N5D655N3RY51SDZM4CPAW6SAF,MIMV_C_test,3,MIMD_C_att,31,33,1,678,4,handsome,MIM_CI_vain,,0,445.4545455,,272.2222222,-0.790543489,158.0645161
6.2.1,win,7/21/20,18:50:39,1,30X31N5D655N3RY51SDZM4CPAW6SAF,MIMV_C_test,3,MIMD_C_v,32,57,1,696,3,self-absorbed,MIM_CI_vain,,0,454.5454545,,277.7777778,-0.792579537,156.25
6.2.1,win,7/21/20,18:50:39,1,30X31N5D655N3RY51SDZM4CPAW6SAF,MIMV_C_test,3,MIMD_C_v,33,57,1,559,7,narcissistic,MIM_CI_vain,,0,463.6363636,,283.3333333,-0.79135523,154.5454545
6.2.1,win,7/21/20,18:50:39,1,30X31N5D655N3RY51SDZM4CPAW6SAF,MIM_I,4,MIM_I_att,3,36,1,702,5,pretty,MIM_CI_vain,,0,385.7142857,,300,-0.79135523,163.6363636
6.2.1,win,7/21/20,18:50:39,1,30X31N5D655N3RY51SDZM4CPAW6SAF,MIM_I,4,MIM_I_m,4,33,1,719,8,principled,MIM_CI_vain,,0,366.6666667,,305.5555556,-0.79135523,166.6666667
6.2.1,win,7/21/20,18:50:39,1,30X31N5D655N3RY51SDZM4CPAW6SAF,MIM_I,4,MIM_I_im,5,36,0,2354,5,dishonest,MIM_CI_vain,,0,343.75,,305.5555556,-0.79135523,166.6666667
6.2.1,win,7/21/20,18:50:39,1,30X31N5D655N3RY51SDZM4CPAW6SAF,MIM_I,4,MIM_I_att,6,36,0,1569,7,beautiful,MIM_CI_vain,,0,323.5294118,,305.5555556,-0.79135523,166.6666667
6.2.1,win,7/21/20,18:50:39,1,30X31N5D655N3RY51SDZM4CPAW6SAF,MIM_I,4,MIM_I_im,7,36,1,608,5,dishonest,MIM_CI_vain,,0,311.1111111,,311.1111111,-0.79135523,169.6969697
6.2.1,win,7/21/20,18:50:39,1,30X31N5D655N3RY51SDZM4CPAW6SAF,MIM_I,4,MIM_I_att,8,36,1,2025,4,handsome,MIM_CI_vain,,0,300,,316.6666667,-0.79135523,172.7272727
6.2.1,win,7/21/20,18:50:39,1,30X31N5D655N3RY51SDZM4CPAW6SAF,MIM_I,4,MIM_I_m,9,33,1,653,6,truthful,MIM_CI_vain,,0,290,,322.2222222,-0.79135523,175.7575758
6.2.1,win,7/21/20,18:50:39,1,30X31N5D655N3RY51SDZM4CPAW6SAF,MIM_I,4,MIM_I_m,10,33,1,730,3,virtuous,MIM_CI_vain,,0,280.952381,,327.7777778,-0.79135523,178.7878788
6.2.1,win,7/21/20,18:50:39,1,30X31N5D655N3RY51SDZM4CPAW6SAF,MIM_I,4,MIM_I_im,11,36,1,656,4,deceitful,MIM_CI_vain,,0,272.7272727,,333.3333333,-0.79135523,181.8181818
6.2.1,win,7/21/20,18:50:39,1,30X31N5D655N3RY51SDZM4CPAW6SAF,MIMV_I_practice,5,pMIMD_I_im,3,36,1,1355,7,untrustworthy,MIM_CI_vain,,0,286.3636364,,300,-0.79135523,190.9090909
6.2.1,win,7/21/20,18:50:39,1,30X31N5D655N3RY51SDZM4CPAW6SAF,MIMV_I_practice,5,pMIMD_I_v,4,57,0,1069,2,superficial,MIM_CI_vain,,0,286.3636364,,286.3636364,-0.79135523,190.9090909
6.2.1,win,7/21/20,18:50:39,1,30X31N5D655N3RY51SDZM4CPAW6SAF,MIMV_I_practice,5,pMIMD_I_im,5,36,1,684,8,corrupt,MIM_CI_vain,,0,290.9090909,,278.2608696,-0.79135523,193.9393939
6.2.1,win,7/21/20,18:50:39,1,30X31N5D655N3RY51SDZM4CPAW6SAF,MIMV_I_practice,5,pMIMD_I_att,6,36,1,781,6,sexy,MIM_CI_vain,,0,295.4545455,,270.8333333,-0.79135523,196.969697
6.2.1,win,7/21/20,18:50:39,1,30X31N5D655N3RY51SDZM4CPAW6SAF,MIMV_I_practice,5,pMIMD_I_im,7,36,1,618,3,unfair,MIM_CI_vain,,0,300,,264,-0.79135523,200
6.2.1,win,7/21/20,18:50:39,1,30X31N5D655N3RY51SDZM4CPAW6SAF,MIMV_I_practice,5,pMIMD_I_m,8,33,1,902,7,trustworthy,MIM_CI_vain,,0,304.5454545,,257.6923077,-0.79135523,203.030303
6.2.1,win,7/21/20,18:50:39,1,30X31N5D655N3RY51SDZM4CPAW6SAF,MIMV_I_practice,5,pMIMD_I_att,9,36,1,770,2,good-looking,MIM_CI_vain,,0,309.0909091,,251.8518519,-0.79135523,206.0606061
6.2.1,win,7/21/20,18:50:39,1,30X31N5D655N3RY51SDZM4CPAW6SAF,MIMV_I_practice,5,pMIMD_I_v,10,57,1,1041,4,prideful,MIM_CI_vain,,0,313.6363636,,246.4285714,-0.79135523,209.0909091
6.2.1,win,7/21/20,18:50:39,1,30X31N5D655N3RY51SDZM4CPAW6SAF,MIMV_I_practice,5,pMIMD_I_m,11,33,1,892,2,ethical,MIM_CI_vain,,0,318.1818182,,241.3793103,-0.79135523,212.1212121
6.2.1,win,7/21/20,18:50:39,1,30X31N5D655N3RY51SDZM4CPAW6SAF,MIMV_I_practice,5,pMIMD_I_im,12,36,1,616,6,unprincipled,MIM_CI_vain,,0,322.7272727,,236.6666667,-0.79135523,215.1515152
6.2.1,win,7/21/20,18:50:39,1,30X31N5D655N3RY51SDZM4CPAW6SAF,MIMV_I_practice,5,pMIMD_I_m,13,33,1,642,8,principled,MIM_CI_vain,,0,327.2727273,,232.2580645,-0.79135523,218.1818182
6.2.1,win,7/21/20,18:50:39,1,30X31N5D655N3RY51SDZM4CPAW6SAF,MIMV_I_practice,5,pMIMD_I_att,14,36,1,729,8,stunning,MIM_CI_vain,,0,331.8181818,,228.125,-0.79135523,221.2121212
6.2.1,win,7/21/20,18:50:39,1,30X31N5D655N3RY51SDZM4CPAW6SAF,MIMV_I_practice,5,pMIMD_I_m,15,33,1,808,1,moral,MIM_CI_vain,,0,336.3636364,,224.2424242,-0.79135523,224.2424242
6.2.1,win,7/21/20,18:50:39,1,30X31N5D655N3RY51SDZM4CPAW6SAF,MIMV_I_practice,5,pMIMD_I_v,16,57,1,737,6,arrogant,MIM_CI_vain,,0,340.9090909,,220.5882353,-0.79135523,227.2727273
6.2.1,win,7/21/20,18:50:39,1,30X31N5D655N3RY51SDZM4CPAW6SAF,MIMV_I_practice,5,pMIMD_I_att,17,36,0,1602,1,attractive,MIM_CI_vain,,0,340.9090909,,214.2857143,-0.79135523,227.2727273
6.2.1,win,7/21/20,18:50:39,1,30X31N5D655N3RY51SDZM4CPAW6SAF,MIMV_I_practice,5,pMIMD_I_v,18,57,0,1746,8,conceited,MIM_CI_vain,,0,340.9090909,,208.3333333,-0.79135523,227.2727273
6.2.1,win,7/21/20,18:50:39,1,30X31N5D655N3RY51SDZM4CPAW6SAF,MIMV_I_test,6,MIMD_I_att,2,36,1,955,3,gorgeous,MIM_CI_vain,,0,350,,213.8888889,0.700837515,220
6.2.1,win,7/21/20,18:50:39,1,30X31N5D655N3RY51SDZM4CPAW6SAF,MIMV_I_test,6,MIMD_I_att,3,36,1,621,5,pretty,MIM_CI_vain,,0,354.5454545,,216.6666667,0.370267017,216.6666667
6.2.1,win,7/21/20,18:50:39,1,30X31N5D655N3RY51SDZM4CPAW6SAF,MIMV_I_test,6,MIMD_I_att,4,36,1,556,8,stunning,MIM_CI_vain,,0,359.0909091,,219.4444444,0.177119091,213.5135135
6.2.1,win,7/21/20,18:50:39,1,30X31N5D655N3RY51SDZM4CPAW6SAF,MIMV_I_test,6,MIMD_I_v,5,57,1,991,5,egocentric,MIM_CI_vain,,0,363.6363636,,222.2222222,0.128851439,210.5263158
6.2.1,win,7/21/20,18:50:39,1,30X31N5D655N3RY51SDZM4CPAW6SAF,MIMV_I_test,6,MIMD_I_im,6,36,1,772,1,immoral,MIM_CI_vain,,0,368.1818182,,225,0.065759777,207.6923077
6.2.1,win,7/21/20,18:50:39,1,30X31N5D655N3RY51SDZM4CPAW6SAF,MIMV_I_test,6,MIMD_I_im,7,36,1,691,2,unethical,MIM_CI_vain,,0,372.7272727,,227.7777778,0.009943671,205
6.2.1,win,7/21/20,18:50:39,1,30X31N5D655N3RY51SDZM4CPAW6SAF,MIMV_I_test,6,MIMD_I_im,8,36,1,571,5,dishonest,MIM_CI_vain,,0,377.2727273,,230.5555556,-0.045612176,202.4390244
6.2.1,win,7/21/20,18:50:39,1,30X31N5D655N3RY51SDZM4CPAW6SAF,MIMV_I_test,6,MIMD_I_im,9,36,1,549,1,immoral,MIM_CI_vain,,0,381.8181818,,233.3333333,-0.091868566,200
6.2.1,win,7/21/20,18:50:39,1,30X31N5D655N3RY51SDZM4CPAW6SAF,MIMV_I_test,6,MIMD_I_im,10,36,1,551,3,unfair,MIM_CI_vain,,0,386.3636364,,236.1111111,-0.129573898,197.6744186
6.2.1,win,7/21/20,18:50:39,1,30X31N5D655N3RY51SDZM4CPAW6SAF,MIMV_I_test,6,MIMD_I_att,11,36,0,1383,5,pretty,MIM_CI_vain,,0,386.3636364,,236.1111111,-0.095094728,193.1818182
6.2.1,win,7/21/20,18:50:39,1,30X31N5D655N3RY51SDZM4CPAW6SAF,MIMV_I_test,6,MIMD_I_att,12,36,0,1257,3,gorgeous,MIM_CI_vain,,0,386.3636364,,236.1111111,-0.07521623,188.8888889
6.2.1,win,7/21/20,18:50:39,1,30X31N5D655N3RY51SDZM4CPAW6SAF,MIMV_I_test,6,MIMD_I_v,13,57,0,1493,6,arrogant,MIM_CI_vain,,0,386.3636364,,236.1111111,-0.04177163,184.7826087
6.2.1,win,7/21/20,18:50:39,1,30X31N5D655N3RY51SDZM4CPAW6SAF,MIMV_I_test,6,MIMD_I_att,14,36,1,782,6,sexy,MIM_CI_vain,,0,390.9090909,,238.8888889,-0.058597543,182.9787234
6.2.1,win,7/21/20,18:50:39,1,30X31N5D655N3RY51SDZM4CPAW6SAF,MIMV_I_test,6,MIMD_I_m,15,33,1,781,5,honest,MIM_CI_vain,,0,395.4545455,,241.6666667,-0.073602611,181.25
6.2.1,win,7/21/20,18:50:39,1,30X31N5D655N3RY51SDZM4CPAW6SAF,MIMV_I_test,6,MIMD_I_v,16,57,1,1178,2,superficial,MIM_CI_vain,,0,400,,244.4444444,-0.064183452,179.5918367
6.2.1,win,7/21/20,18:50:39,1,30X31N5D655N3RY51SDZM4CPAW6SAF,MIMV_I_test,6,MIMD_I_im,17,36,1,806,8,corrupt,MIM_CI_vain,,0,404.5454545,,247.2222222,-0.076156462,178
6.2.1,win,7/21/20,18:50:39,1,30X31N5D655N3RY51SDZM4CPAW6SAF,MIMV_I_test,6,MIMD_I_v,18,57,1,789,3,self-absorbed,MIM_CI_vain,,0,409.0909091,,250,-0.087952153,176.4705882
6.2.1,win,7/21/20,18:50:39,1,30X31N5D655N3RY51SDZM4CPAW6SAF,MIMV_I_test,6,MIMD_I_v,19,57,1,599,7,narcissistic,MIM_CI_vain,,0,413.6363636,,252.7777778,-0.108154527,175
6.2.1,win,7/21/20,18:50:39,1,30X31N5D655N3RY51SDZM4CPAW6SAF,MIMV_I_test,6,MIMD_I_im,20,36,1,919,4,deceitful,MIM_CI_vain,,0,418.1818182,,255.5555556,-0.111557083,173.5849057
6.2.1,win,7/21/20,18:50:39,1,30X31N5D655N3RY51SDZM4CPAW6SAF,MIMV_I_test,6,MIMD_I_m,21,33,1,646,4,fair,MIM_CI_vain,,0,422.7272727,,258.3333333,-0.127197734,172.2222222
6.2.1,win,7/21/20,18:50:39,1,30X31N5D655N3RY51SDZM4CPAW6SAF,MIMV_I_test,6,MIMD_I_v,22,57,0,916,8,conceited,MIM_CI_vain,,0,422.7272727,,258.3333333,-0.129911047,169.0909091
6.2.1,win,7/21/20,18:50:39,1,30X31N5D655N3RY51SDZM4CPAW6SAF,MIMV_I_test,6,MIMD_I_m,23,33,1,692,7,trustworthy,MIM_CI_vain,,0,427.2727273,,261.1111111,-0.141973788,167.8571429
6.2.1,win,7/21/20,18:50:39,1,30X31N5D655N3RY51SDZM4CPAW6SAF,MIMV_I_test,6,MIMD_I_m,24,33,1,587,4,fair,MIM_CI_vain,,0,431.8181818,,263.8888889,-0.157513259,166.6666667
6.2.1,win,7/21/20,18:50:39,1,30X31N5D655N3RY51SDZM4CPAW6SAF,MIMV_I_test,6,MIMD_I_v,25,57,1,800,1,vain,MIM_CI_vain,,0,436.3636364,,266.6666667,-0.163777562,165.5172414
6.2.1,win,7/21/20,18:50:39,1,30X31N5D655N3RY51SDZM4CPAW6SAF,MIMV_I_test,6,MIMD_I_att,26,36,0,1168,4,handsome,MIM_CI_vain,,0,436.3636364,,266.6666667,-0.155490974,162.7118644
6.2.1,win,7/21/20,18:50:39,1,30X31N5D655N3RY51SDZM4CPAW6SAF,MIMV_I_test,6,MIMD_I_v,27,57,1,890,4,prideful,MIM_CI_vain,,0,440.9090909,,269.4444444,-0.158231938,161.6666667
6.2.1,win,7/21/20,18:50:39,1,30X31N5D655N3RY51SDZM4CPAW6SAF,MIMV_I_test,6,MIMD_I_m,28,33,1,754,5,honest,MIM_CI_vain,,0,445.4545455,,272.2222222,-0.165788629,160.6557377
6.2.1,win,7/21/20,18:50:39,1,30X31N5D655N3RY51SDZM4CPAW6SAF,MIMV_I_test,6,MIMD_I_m,29,33,1,868,3,virtuous,MIM_CI_vain,,0,450,,275,-0.169000487,159.6774194
6.2.1,win,7/21/20,18:50:39,1,30X31N5D655N3RY51SDZM4CPAW6SAF,MIMV_I_test,6,MIMD_I_im,30,36,1,721,2,unethical,MIM_CI_vain,,0,454.5454545,,277.7777778,-0.177114241,158.7301587
6.2.1,win,7/21/20,18:50:39,1,30X31N5D655N3RY51SDZM4CPAW6SAF,MIMV_I_test,6,MIMD_I_m,31,33,1,856,2,ethical,MIM_CI_vain,,0,459.0909091,,280.5555556,-0.180397129,157.8125
6.2.1,win,7/21/20,18:50:39,1,30X31N5D655N3RY51SDZM4CPAW6SAF,MIMV_I_test,6,MIMD_I_att,32,36,1,886,7,beautiful,MIM_CI_vain,,0,463.6363636,,283.3333333,-0.1826,156.9230769
6.2.1,win,7/21/20,18:50:39,1,30X31N5D655N3RY51SDZM4CPAW6SAF,MIMV_I_test,6,MIMD_I_m,33,33,1,864,6,truthful,MIM_CI_vain,,0,468.1818182,,286.1111111,-0.18545698,156.0606061
6.2.1,win,7/21/20,17:50:08,8,3F6HPJW4JFFR55KA8IULDBWC4LAW2R,IMM_C,1,IMM_C_m,3,36,0,1107,3,virtuous,IMM_CI_color,,0,66.66666667,,0,,0
6.2.1,win,7/21/20,17:50:08,8,3F6HPJW4JFFR55KA8IULDBWC4LAW2R,IMM_C,1,IMM_C_att,4,36,1,38,5,pretty,IMM_CI_color,,0,75,,0,,0
6.2.1,win,7/21/20,17:50:08,8,3F6HPJW4JFFR55KA8IULDBWC4LAW2R,IMM_C,1,IMM_C_im,5,33,1,126,3,unfair,IMM_CI_color,,0,80,,0,,0
6.2.1,win,7/21/20,17:50:08,8,3F6HPJW4JFFR55KA8IULDBWC4LAW2R,IMM_C,1,IMM_C_im,6,33,0,59,5,dishonest,IMM_CI_color,,0,66.66666667,,0,,0
6.2.1,win,7/21/20,17:50:08,8,3F6HPJW4JFFR55KA8IULDBWC4LAW2R,IMM_C,1,IMM_C_m,7,36,1,240,5,honest,IMM_CI_color,,0,71.42857143,,0,,0
6.2.1,win,7/21/20,17:50:08,8,3F6HPJW4JFFR55KA8IULDBWC4LAW2R,IMM_C,1,IMM_C_att,8,36,1,2,4,handsome,IMM_CI_color,,0,75,,0,,0
6.2.1,win,7/21/20,17:50:08,8,3F6HPJW4JFFR55KA8IULDBWC4LAW2R,IMM_C,1,IMM_C_att,9,36,1,50,7,beautiful,IMM_CI_color,,0,77.77777778,,0,,0
6.2.1,win,7/21/20,17:50:08,8,3F6HPJW4JFFR55KA8IULDBWC4LAW2R,IMM_C,1,IMM_C_im,10,33,0,106,2,unethical,IMM_CI_color,,0,70,,0,,0
6.2.1,win,7/21/20,17:50:08,8,3F6HPJW4JFFR55KA8IULDBWC4LAW2R,IMM_C,1,IMM_C_m,11,36,1,140,7,trustworthy,IMM_CI_color,,0,72.72727273,,0,,0
6.2.1,win,7/21/20,17:50:08,8,3F6HPJW4JFFR55KA8IULDBWC4LAW2R,IMMC_C_practice,2,pIMMD_C_c,3,57,0,4773,8,gray,IMM_CI_color,,0,90.90909091,,0,,0
6.2.1,win,7/21/20,17:50:08,8,3F6HPJW4JFFR55KA8IULDBWC4LAW2R,IMMC_C_practice,2,pIMMD_C_m,4,36,1,371,2,ethical,IMM_CI_color,,0,100,,0,,0
6.2.1,win,7/21/20,17:50:08,8,3F6HPJW4JFFR55KA8IULDBWC4LAW2R,IMMC_C_practice,2,pIMMD_C_m,5,36,1,310,1,moral,IMM_CI_color,,0,109.0909091,,0,,0
6.2.1,win,7/21/20,17:50:08,8,3F6HPJW4JFFR55KA8IULDBWC4LAW2R,IMMC_C_practice,2,pIMMD_C_c,6,57,0,986,2,yellow,IMM_CI_color,,0,109.0909091,,0,,0
6.2.1,win,7/21/20,17:50:08,8,3F6HPJW4JFFR55KA8IULDBWC4LAW2R,IMMC_C_practice,2,pIMMD_C_im,7,33,0,174,1,immoral,IMM_CI_color,,0,109.0909091,,0,,0
6.2.1,win,7/21/20,17:50:08,8,3F6HPJW4JFFR55KA8IULDBWC4LAW2R,IMMC_C_practice,2,pIMMD_C_c,8,57,1,160,6,orange,IMM_CI_color,,0,118.1818182,,0,,0
6.2.1,win,7/21/20,17:50:08,8,3F6HPJW4JFFR55KA8IULDBWC4LAW2R,IMMC_C_practice,2,pIMMD_C_im,9,33,0,82,8,corrupt,IMM_CI_color,,0,118.1818182,,0,,0
6.2.1,win,7/21/20,17:50:08,8,3F6HPJW4JFFR55KA8IULDBWC4LAW2R,IMMC_C_practice,2,pIMMD_C_im,10,33,1,163,4,deceitful,IMM_CI_color,,0,127.2727273,,0,,0
6.2.1,win,7/21/20,17:50:08,8,3F6HPJW4JFFR55KA8IULDBWC4LAW2R,IMMC_C_practice,2,pIMMD_C_att,11,36,0,279,1,attractive,IMM_CI_color,,0,127.2727273,,0,,0
6.2.1,win,7/21/20,17:50:08,8,3F6HPJW4JFFR55KA8IULDBWC4LAW2R,IMMC_C_practice,2,pIMMD_C_att,12,36,1,34,2,good-looking,IMM_CI_color,,0,136.3636364,,0,,0
6.2.1,win,7/21/20,17:50:08,8,3F6HPJW4JFFR55KA8IULDBWC4LAW2R,IMMC_C_practice,2,pIMMD_C_m,13,36,1,54,4,fair,IMM_CI_color,,0,145.4545455,,0,,0
6.2.1,win,7/21/20,17:50:08,8,3F6HPJW4JFFR55KA8IULDBWC4LAW2R,IMMC_C_practice,2,pIMMD_C_m,14,36,1,14,6,truthful,IMM_CI_color,,0,154.5454545,,0,,0
6.2.1,win,7/21/20,17:50:08,8,3F6HPJW4JFFR55KA8IULDBWC4LAW2R,IMMC_C_practice,2,pIMMD_C_c,15,57,0,597,1,blue,IMM_CI_color,,0,154.5454545,,0,,0
6.2.1,win,7/21/20,17:50:08,8,3F6HPJW4JFFR55KA8IULDBWC4LAW2R,IMMC_C_practice,2,pIMMD_C_att,16,36,1,35,3,gorgeous,IMM_CI_color,,0,163.6363636,,0,,0
6.2.1,win,7/21/20,17:50:08,8,3F6HPJW4JFFR55KA8IULDBWC4LAW2R,IMMC_C_practice,2,pIMMD_C_att,17,36,0,232,8,stunning,IMM_CI_color,,0,163.6363636,,0,,0
6.2.1,win,7/21/20,17:50:08,8,3F6HPJW4JFFR55KA8IULDBWC4LAW2R,IMMC_C_practice,2,pIMMD_C_im,18,33,0,1099,7,untrustworthy,IMM_CI_color,,0,163.6363636,,0,,0
6.2.1,win,7/21/20,17:50:08,8,3F6HPJW4JFFR55KA8IULDBWC4LAW2R,IMMC_C_test,3,IMMD_C_im,2,33,0,176,6,unprincipled,IMM_CI_color,,0,172.7272727,,0,-0.937320923,0
6.2.1,win,7/21/20,17:50:08,8,3F6HPJW4JFFR55KA8IULDBWC4LAW2R,IMMC_C_test,3,IMMD_C_m,3,36,0,213,8,principled,IMM_CI_color,,0,172.7272727,,0,-1.036824481,0
6.2.1,win,7/21/20,17:50:08,8,3F6HPJW4JFFR55KA8IULDBWC4LAW2R,IMMC_C_test,3,IMMD_C_att,4,36,1,66,6,sexy,IMM_CI_color,,0,181.8181818,,0,-0.924938245,0
6.2.1,win,7/21/20,17:50:08,8,3F6HPJW4JFFR55KA8IULDBWC4LAW2R,IMMC_C_test,3,IMMD_C_att,5,36,1,30,5,pretty,IMM_CI_color,,0,190.9090909,,0,-0.82363923,0
6.2.1,win,7/21/20,17:50:08,8,3F6HPJW4JFFR55KA8IULDBWC4LAW2R,IMMC_C_test,3,IMMD_C_c,6,57,0,2080,3,red,IMM_CI_color,,0,190.9090909,,0,-0.634318022,0
6.2.1,win,7/21/20,17:50:08,8,3F6HPJW4JFFR55KA8IULDBWC4LAW2R,IMMC_C_test,3,IMMD_C_m,7,36,0,732,2,ethical,IMM_CI_color,,0,190.9090909,,0,-0.715936351,0
6.2.1,win,7/21/20,17:50:08,8,3F6HPJW4JFFR55KA8IULDBWC4LAW2R,IMMC_C_test,3,IMMD_C_att,8,36,1,173,8,stunning,IMM_CI_color,,0,200,,0,-0.696443836,0
6.2.1,win,7/21/20,17:50:08,8,3F6HPJW4JFFR55KA8IULDBWC4LAW2R,IMMC_C_test,3,IMMD_C_c,9,57,0,623,7,green,IMM_CI_color,,0,200,,0,-0.751952929,0
6.2.1,win,7/21/20,17:50:08,8,3F6HPJW4JFFR55KA8IULDBWC4LAW2R,IMMC_C_test,3,IMMD_C_m,10,36,1,46,7,trustworthy,IMM_CI_color,,0,209.0909091,,0,-0.710772259,0
6.2.1,win,7/21/20,17:50:08,8,3F6HPJW4JFFR55KA8IULDBWC4LAW2R,IMMC_C_test,3,IMMD_C_att,11,36,1,109,7,beautiful,IMM_CI_color,,0,218.1818182,,0,-0.688616277,0
6.2.1,win,7/21/20,17:50:08,8,3F6HPJW4JFFR55KA8IULDBWC4LAW2R,IMMC_C_test,3,IMMD_C_c,12,57,0,573,5,brown,IMM_CI_color,,0,218.1818182,,0,-0.731563814,0
6.2.1,win,7/21/20,17:50:08,8,3F6HPJW4JFFR55KA8IULDBWC4LAW2R,IMMC_C_test,3,IMMD_C_m,13,36,1,77,1,moral,IMM_CI_color,,0,227.2727273,,0,-0.706985906,0
6.2.1,win,7/21/20,17:50:08,8,3F6HPJW4JFFR55KA8IULDBWC4LAW2R,IMMC_C_test,3,IMMD_C_m,14,36,1,84,8,principled,IMM_CI_color,,0,236.3636364,,0,-0.687142623,0
6.2.1,win,7/21/20,17:50:08,8,3F6HPJW4JFFR55KA8IULDBWC4LAW2R,IMMC_C_test,3,IMMD_C_m,15,36,1,102,5,honest,IMM_CI_color,,0,245.4545455,,0,-0.672698452,0
6.2.1,win,7/21/20,17:50:08,8,3F6HPJW4JFFR55KA8IULDBWC4LAW2R,IMMC_C_test,3,IMMD_C_im,16,33,0,242,2,unethical,IMM_CI_color,,0,245.4545455,,0,-0.678293541,0
6.2.1,win,7/21/20,17:50:08,8,3F6HPJW4JFFR55KA8IULDBWC4LAW2R,IMMC_C_test,3,IMMD_C_im,17,33,1,142,4,deceitful,IMM_CI_color,,0,254.5454545,,0,-0.671890356,0
6.2.1,win,7/21/20,17:50:08,8,3F6HPJW4JFFR55KA8IULDBWC4LAW2R,IMMC_C_test,3,IMMD_C_c,18,57,0,1625,4,purple,IMM_CI_color,,0,254.5454545,,0,-0.701714785,0
6.2.1,win,7/21/20,17:50:08,8,3F6HPJW4JFFR55KA8IULDBWC4LAW2R,IMMC_C_test,3,IMMD_C_att,19,36,1,84,6,sexy,IMM_CI_color,,0,263.6363636,,0,-0.686841233,0
6.2.1,win,7/21/20,17:50:08,8,3F6HPJW4JFFR55KA8IULDBWC4LAW2R,IMMC_C_test,3,IMMD_C_att,20,36,1,133,4,handsome,IMM_CI_color,,0,272.7272727,,0,-0.678670356,0
6.2.1,win,7/21/20,17:50:08,8,3F6HPJW4JFFR55KA8IULDBWC4LAW2R,IMMC_C_test,3,IMMD_C_att,21,36,1,134,3,gorgeous,IMM_CI_color,,0,281.8181818,,0,-0.671552748,0
6.2.1,win,7/21/20,17:50:08,8,3F6HPJW4JFFR55KA8IULDBWC4LAW2R,IMMC_C_test,3,IMMD_C_c,22,57,0,909,6,orange,IMM_CI_color,,0,281.8181818,,0,-0.709298282,0
6.2.1,win,7/21/20,17:50:08,8,3F6HPJW4JFFR55KA8IULDBWC4LAW2R,IMMC_C_test,3,IMMD_C_im,23,33,1,98,5,dishonest,IMM_CI_color,,0,290.9090909,,0,-0.698419936,0
6.2.1,win,7/21/20,17:50:08,8,3F6HPJW4JFFR55KA8IULDBWC4LAW2R,IMMC_C_test,3,IMMD_C_im,24,33,0,127,1,immoral,IMM_CI_color,,0,290.9090909,,0,-0.691201884,0
6.2.1,win,7/21/20,17:50:08,8,3F6HPJW4JFFR55KA8IULDBWC4LAW2R,IMMC_C_test,3,IMMD_C_im,25,33,1,115,8,corrupt,IMM_CI_color,,0,300,,0,-0.683626406,0
6.2.1,win,7/21/20,17:50:08,8,3F6HPJW4JFFR55KA8IULDBWC4LAW2R,IMMC_C_test,3,IMMD_C_im,26,33,0,342,3,unfair,IMM_CI_color,,0,300,,0,-0.694038212,0
6.2.1,win,7/21/20,17:50:08,8,3F6HPJW4JFFR55KA8IULDBWC4LAW2R,IMMC_C_test,3,IMMD_C_im,27,33,0,495,6,unprincipled,IMM_CI_color,,0,300,,0,-0.712887229,0
6.2.1,win,7/21/20,17:50:08,8,3F6HPJW4JFFR55KA8IULDBWC4LAW2R,IMMC_C_test,3,IMMD_C_m,28,36,1,390,3,virtuous,IMM_CI_color,,0,309.0909091,,0,-0.725497045,0
6.2.1,win,7/21/20,17:50:08,8,3F6HPJW4JFFR55KA8IULDBWC4LAW2R,IMMC_C_test,3,IMMD_C_c,29,57,0,1032,8,gray,IMM_CI_color,,0,309.0909091,,0,-0.753813553,0
6.2.1,win,7/21/20,17:50:08,8,3F6HPJW4JFFR55KA8IULDBWC4LAW2R,IMMC_C_test,3,IMMD_C_c,30,57,0,618,5,brown,IMM_CI_color,,0,309.0909091,,0,-0.774761579,0
6.2.1,win,7/21/20,17:50:08,8,3F6HPJW4JFFR55KA8IULDBWC4LAW2R,IMMC_C_test,3,IMMD_C_m,31,36,1,406,6,truthful,IMM_CI_color,,0,318.1818182,,0,-0.7859352,0
6.2.1,win,7/21/20,17:50:08,8,3F6HPJW4JFFR55KA8IULDBWC4LAW2R,IMMC_C_test,3,IMMD_C_att,32,36,1,5,1,attractive,IMM_CI_color,,0,327.2727273,,0,-0.768678074,0
6.2.1,win,7/21/20,17:50:08,8,3F6HPJW4JFFR55KA8IULDBWC4LAW2R,IMMC_C_test,3,IMMD_C_c,33,57,0,539,2,yellow,IMM_CI_color,,0,327.2727273,,0,-0.785449635,0
6.2.1,win,7/21/20,17:50:08,8,3F6HPJW4JFFR55KA8IULDBWC4LAW2R,IMM_I,4,IMM_I_m,3,36,1,59,4,fair,IMM_CI_color,,0,278.5714286,,0,-0.785449635,0
6.2.1,win,7/21/20,17:50:08,8,3F6HPJW4JFFR55KA8IULDBWC4LAW2R,IMM_I,4,IMM_I_att,4,33,1,95,2,good-looking,IMM_CI_color,,0,266.6666667,,0,-0.785449635,0
6.2.1,win,7/21/20,17:50:08,8,3F6HPJW4JFFR55KA8IULDBWC4LAW2R,IMM_I,4,IMM_I_im,5,33,0,171,7,untrustworthy,IMM_CI_color,,0,250,,0,-0.785449635,0
6.2.1,win,7/21/20,17:50:08,8,3F6HPJW4JFFR55KA8IULDBWC4LAW2R,IMM_I,4,IMM_I_im,6,33,1,39,3,unfair,IMM_CI_color,,0,241.1764706,,0,-0.785449635,0
6.2.1,win,7/21/20,17:50:08,8,3F6HPJW4JFFR55KA8IULDBWC4LAW2R,IMM_I,4,IMM_I_im,7,33,0,173,1,immoral,IMM_CI_color,,0,227.7777778,,0,-0.785449635,0
6.2.1,win,7/21/20,17:50:08,8,3F6HPJW4JFFR55KA8IULDBWC4LAW2R,IMM_I,4,IMM_I_m,8,36,1,3,3,virtuous,IMM_CI_color,,0,221.0526316,,0,-0.785449635,0
6.2.1,win,7/21/20,17:50:08,8,3F6HPJW4JFFR55KA8IULDBWC4LAW2R,IMM_I,4,IMM_I_att,9,33,0,295,7,beautiful,IMM_CI_color,,0,210,,0,-0.785449635,0
6.2.1,win,7/21/20,17:50:08,8,3F6HPJW4JFFR55KA8IULDBWC4LAW2R,IMM_I,4,IMM_I_att,10,33,1,63,3,gorgeous,IMM_CI_color,,0,204.7619048,,0,-0.785449635,0
6.2.1,win,7/21/20,17:50:08,8,3F6HPJW4JFFR55KA8IULDBWC4LAW2R,IMM_I,4,IMM_I_m,11,36,1,78,2,ethical,IMM_CI_color,,0,200,,0,-0.785449635,0
6.2.1,win,7/21/20,17:50:08,8,3F6HPJW4JFFR55KA8IULDBWC4LAW2R,IMMC_I_practice,5,pIMMD_I_m,3,36,0,86,7,trustworthy,IMM_CI_color,,0,209.0909091,,0,-0.785449635,0
6.2.1,win,7/21/20,17:50:08,8,3F6HPJW4JFFR55KA8IULDBWC4LAW2R,IMMC_I_practice,5,pIMMD_I_c,4,57,0,602,4,purple,IMM_CI_color,,0,209.0909091,,0,-0.785449635,0
6.2.1,win,7/21/20,17:50:08,8,3F6HPJW4JFFR55KA8IULDBWC4LAW2R,IMMC_I_practice,5,pIMMD_I_att,5,33,0,748,1,attractive,IMM_CI_color,,0,209.0909091,,0,-0.785449635,0
6.2.1,win,7/21/20,17:50:08,8,3F6HPJW4JFFR55KA8IULDBWC4LAW2R,IMMC_I_practice,5,pIMMD_I_m,6,36,1,375,6,truthful,IMM_CI_color,,0,213.6363636,,0,-0.785449635,0
6.2.1,win,7/21/20,17:50:08,8,3F6HPJW4JFFR55KA8IULDBWC4LAW2R,IMMC_I_practice,5,pIMMD_I_im,7,33,1,268,7,untrustworthy,IMM_CI_color,,0,218.1818182,,0,-0.785449635,0
6.2.1,win,7/21/20,17:50:08,8,3F6HPJW4JFFR55KA8IULDBWC4LAW2R,IMMC_I_practice,5,pIMMD_I_c,8,57,0,882,7,green,IMM_CI_color,,0,218.1818182,,0,-0.785449635,0
6.2.1,win,7/21/20,17:50:08,8,3F6HPJW4JFFR55KA8IULDBWC4LAW2R,IMMC_I_practice,5,pIMMD_I_att,9,33,0,782,8,stunning,IMM_CI_color,,0,218.1818182,,0,-0.785449635,0
6.2.1,win,7/21/20,17:50:08,8,3F6HPJW4JFFR55KA8IULDBWC4LAW2R,IMMC_I_practice,5,pIMMD_I_im,10,33,0,684,8,corrupt,IMM_CI_color,,0,218.1818182,,0,-0.785449635,0
6.2.1,win,7/21/20,17:50:08,8,3F6HPJW4JFFR55KA8IULDBWC4LAW2R,IMMC_I_practice,5,pIMMD_I_m,11,36,0,107,8,principled,IMM_CI_color,,0,218.1818182,,0,-0.785449635,0
6.2.1,win,7/21/20,17:50:08,8,3F6HPJW4JFFR55KA8IULDBWC4LAW2R,IMMC_I_practice,5,pIMMD_I_c,12,57,0,534,1,blue,IMM_CI_color,,0,218.1818182,,0,-0.785449635,0
6.2.1,win,7/21/20,17:50:08,8,3F6HPJW4JFFR55KA8IULDBWC4LAW2R,IMMC_I_practice,5,pIMMD_I_c,13,57,0,591,3,red,IMM_CI_color,,0,218.1818182,,0,-0.785449635,0
6.2.1,win,7/21/20,17:50:08,8,3F6HPJW4JFFR55KA8IULDBWC4LAW2R,IMMC_I_practice,5,pIMMD_I_im,14,33,0,77,6,unprincipled,IMM_CI_color,,0,218.1818182,,0,-0.785449635,0
6.2.1,win,7/21/20,17:50:08,8,3F6HPJW4JFFR55KA8IULDBWC4LAW2R,IMMC_I_practice,5,pIMMD_I_att,15,33,1,65,2,good-looking,IMM_CI_color,,0,222.7272727,,0,-0.785449635,0
6.2.1,win,7/21/20,17:50:08,8,3F6HPJW4JFFR55KA8IULDBWC4LAW2R,IMMC_I_practice,5,pIMMD_I_att,16,33,1,190,6,sexy,IMM_CI_color,,0,227.2727273,,0,-0.785449635,0
6.2.1,win,7/21/20,17:50:08,8,3F6HPJW4JFFR55KA8IULDBWC4LAW2R,IMMC_I_practice,5,pIMMD_I_im,17,33,0,42,5,dishonest,IMM_CI_color,,0,227.2727273,,0,-0.785449635,0
6.2.1,win,7/21/20,17:50:08,8,3F6HPJW4JFFR55KA8IULDBWC4LAW2R,IMMC_I_practice,5,pIMMD_I_m,18,36,0,240,1,moral,IMM_CI_color,,0,227.2727273,,0,-0.785449635,0
6.2.1,win,7/21/20,17:50:08,8,3F6HPJW4JFFR55KA8IULDBWC4LAW2R,IMMC_I_test,6,IMMD_I_m,2,36,1,74,4,fair,IMM_CI_color,,0,236.3636364,,0,0.55254191,0
6.2.1,win,7/21/20,17:50:08,8,3F6HPJW4JFFR55KA8IULDBWC4LAW2R,IMMC_I_test,6,IMMD_I_att,3,33,0,387,4,handsome,IMM_CI_color,,0,236.3636364,,0,0.372901398,0
6.2.1,win,7/21/20,17:50:08,8,3F6HPJW4JFFR55KA8IULDBWC4LAW2R,IMMC_I_test,6,IMMD_I_m,4,36,1,35,5,honest,IMM_CI_color,,0,240.9090909,,0,0.090899182,0
6.2.1,win,7/21/20,17:50:08,8,3F6HPJW4JFFR55KA8IULDBWC4LAW2R,IMMC_I_test,6,IMMD_I_att,5,33,0,229,5,pretty,IMM_CI_color,,0,240.9090909,,0,0.000483656,0
6.2.1,win,7/21/20,17:50:08,8,3F6HPJW4JFFR55KA8IULDBWC4LAW2R,IMMC_I_test,6,IMMD_I_m,6,36,1,223,5,honest,IMM_CI_color,,0,245.4545455,,0,-0.063418336,0
6.2.1,win,7/21/20,17:50:08,8,3F6HPJW4JFFR55KA8IULDBWC4LAW2R,IMMC_I_test,6,IMMD_I_m,7,36,1,2,8,principled,IMM_CI_color,,0,250,,0,-0.178321688,0
6.2.1,win,7/21/20,17:50:08,8,3F6HPJW4JFFR55KA8IULDBWC4LAW2R,IMMC_I_test,6,IMMD_I_att,8,33,1,14,4,handsome,IMM_CI_color,,0,254.5454545,,0,-0.261886376,0
6.2.1,win,7/21/20,17:50:08,8,3F6HPJW4JFFR55KA8IULDBWC4LAW2R,IMMC_I_test,6,IMMD_I_im,9,33,0,227,2,unethical,IMM_CI_color,,0,254.5454545,,0,-0.277647447,0
6.2.1,win,7/21/20,17:50:08,8,3F6HPJW4JFFR55KA8IULDBWC4LAW2R,IMMC_I_test,6,IMMD_I_im,10,33,0,246,4,deceitful,IMM_CI_color,,0,254.5454545,,0,-0.286939035,0
6.2.1,win,7/21/20,17:50:08,8,3F6HPJW4JFFR55KA8IULDBWC4LAW2R,IMMC_I_test,6,IMMD_I_m,11,36,1,36,4,fair,IMM_CI_color,,0,259.0909091,,0,-0.336329082,0
6.2.1,win,7/21/20,17:50:08,8,3F6HPJW4JFFR55KA8IULDBWC4LAW2R,IMMC_I_test,6,IMMD_I_c,12,57,0,880,3,red,IMM_CI_color,,0,259.0909091,,0,-0.217580781,0
6.2.1,win,7/21/20,17:50:08,8,3F6HPJW4JFFR55KA8IULDBWC4LAW2R,IMMC_I_test,6,IMMD_I_c,13,57,1,121,1,blue,IMM_CI_color,,0,263.6363636,,0,-0.250732963,0
6.2.1,win,7/21/20,17:50:08,8,3F6HPJW4JFFR55KA8IULDBWC4LAW2R,IMMC_I_test,6,IMMD_I_att,14,33,0,65,5,pretty,IMM_CI_color,,0,263.6363636,,0,-0.288447068,0
6.2.1,win,7/21/20,17:50:08,8,3F6HPJW4JFFR55KA8IULDBWC4LAW2R,IMMC_I_test,6,IMMD_I_im,15,33,0,316,6,unprincipled,IMM_CI_color,,0,263.6363636,,0,-0.284856781,0
6.2.1,win,7/21/20,17:50:08,8,3F6HPJW4JFFR55KA8IULDBWC4LAW2R,IMMC_I_test,6,IMMD_I_m,16,36,1,74,6,truthful,IMM_CI_color,,0,268.1818182,,0,-0.315658296,0
6.2.1,win,7/21/20,17:50:08,8,3F6HPJW4JFFR55KA8IULDBWC4LAW2R,IMMC_I_test,6,IMMD_I_im,17,33,0,137,4,deceitful,IMM_CI_color,,0,268.1818182,,0,-0.335351382,0
6.2.1,win,7/21/20,17:50:08,8,3F6HPJW4JFFR55KA8IULDBWC4LAW2R,IMMC_I_test,6,IMMD_I_att,18,33,0,246,2,good-looking,IMM_CI_color,,0,268.1818182,,0,-0.339802169,0
6.2.1,win,7/21/20,17:50:08,8,3F6HPJW4JFFR55KA8IULDBWC4LAW2R,IMMC_I_test,6,IMMD_I_c,19,57,0,1166,8,gray,IMM_CI_color,,0,268.1818182,,0,-0.221144579,0
6.2.1,win,7/21/20,17:50:08,8,3F6HPJW4JFFR55KA8IULDBWC4LAW2R,IMMC_I_test,6,IMMD_I_m,20,36,0,297,1,moral,IMM_CI_color,,0,268.1818182,,0,-0.22390279,0
6.2.1,win,7/21/20,17:50:08,8,3F6HPJW4JFFR55KA8IULDBWC4LAW2R,IMMC_I_test,6,IMMD_I_att,21,33,0,320,1,attractive,IMM_CI_color,,0,268.1818182,,0,-0.224052418,0
6.2.1,win,7/21/20,17:50:08,8,3F6HPJW4JFFR55KA8IULDBWC4LAW2R,IMMC_I_test,6,IMMD_I_im,22,33,0,519,8,corrupt,IMM_CI_color,,0,268.1818182,,0,-0.202682711,0
6.2.1,win,7/21/20,17:50:08,8,3F6HPJW4JFFR55KA8IULDBWC4LAW2R,IMMC_I_test,6,IMMD_I_c,23,57,0,1162,7,green,IMM_CI_color,,0,268.1818182,,0,-0.11286611,0
6.2.1,win,7/21/20,17:50:08,8,3F6HPJW4JFFR55KA8IULDBWC4LAW2R,IMMC_I_test,6,IMMD_I_m,24,36,1,143,7,trustworthy,IMM_CI_color,,0,272.7272727,,0,-0.13364337,0
6.2.1,win,7/21/20,17:50:08,8,3F6HPJW4JFFR55KA8IULDBWC4LAW2R,IMMC_I_test,6,IMMD_I_c,25,57,0,2495,5,brown,IMM_CI_color,,0,272.7272727,,0,0.056501639,0
6.2.1,win,7/21/20,17:50:08,8,3F6HPJW4JFFR55KA8IULDBWC4LAW2R,IMMC_I_test,6,IMMD_I_c,26,57,1,164,4,purple,IMM_CI_color,,0,277.2727273,,0,0.036838969,0
6.2.1,win,7/21/20,17:50:08,8,3F6HPJW4JFFR55KA8IULDBWC4LAW2R,IMMC_I_test,6,IMMD_I_im,27,33,0,629,3,unfair,IMM_CI_color,,0,277.2727273,,0,0.052725402,0
6.2.1,win,7/21/20,17:50:08,8,3F6HPJW4JFFR55KA8IULDBWC4LAW2R,IMMC_I_test,6,IMMD_I_im,28,33,1,86,2,unethical,IMM_CI_color,,0,281.8181818,,0,0.028740141,0
6.2.1,win,7/21/20,17:50:08,8,3F6HPJW4JFFR55KA8IULDBWC4LAW2R,IMMC_I_test,6,IMMD_I_im,29,33,0,119,7,untrustworthy,IMM_CI_color,,0,281.8181818,,0,0.008492091,0
6.2.1,win,7/21/20,17:50:08,8,3F6HPJW4JFFR55KA8IULDBWC4LAW2R,IMMC_I_test,6,IMMD_I_c,30,57,0,566,6,orange,IMM_CI_color,,0,281.8181818,,0,0.019587812,0
6.2.1,win,7/21/20,17:50:08,8,3F6HPJW4JFFR55KA8IULDBWC4LAW2R,IMMC_I_test,6,IMMD_I_c,31,57,1,3,2,yellow,IMM_CI_color,,0,286.3636364,,0,-0.006944737,0
6.2.1,win,7/21/20,17:50:08,8,3F6HPJW4JFFR55KA8IULDBWC4LAW2R,IMMC_I_test,6,IMMD_I_att,32,33,0,145,3,gorgeous,IMM_CI_color,,0,286.3636364,,0,-0.022978452,0
6.2.1,win,7/21/20,17:50:08,8,3F6HPJW4JFFR55KA8IULDBWC4LAW2R,IMMC_I_test,6,IMMD_I_att,33,33,0,496,6,sexy,IMM_CI_color,,0,286.3636364,,0,-0.016363238,0
6.2.1,win,7/21/20,17:52:47,6,39ASUFLU6ZMYPL1GB7L8HVJ8AQ6XEN,MIM_I,1,MIM_I_im,3,36,0,2973,6,unprincipled,MIM_IC_color,,0,66.66666667,,0,,0
6.2.1,win,7/21/20,17:52:47,6,39ASUFLU6ZMYPL1GB7L8HVJ8AQ6XEN,MIM_I,1,MIM_I_m,4,33,1,876,4,fair,MIM_IC_color,,0,75,,0,,0
6.2.1,win,7/21/20,17:52:47,6,39ASUFLU6ZMYPL1GB7L8HVJ8AQ6XEN,MIM_I,1,MIM_I_m,5,33,1,672,7,trustworthy,MIM_IC_color,,0,80,,0,,0
6.2.1,win,7/21/20,17:52:47,6,39ASUFLU6ZMYPL1GB7L8HVJ8AQ6XEN,MIM_I,1,MIM_I_att,6,36,1,924,6,sexy,MIM_IC_color,,0,83.33333333,,0,,0
6.2.1,win,7/21/20,17:52:47,6,39ASUFLU6ZMYPL1GB7L8HVJ8AQ6XEN,MIM_I,1,MIM_I_im,7,36,1,1030,1,immoral,MIM_IC_color,,0,85.71428571,,0,,0
6.2.1,win,7/21/20,17:52:47,6,39ASUFLU6ZMYPL1GB7L8HVJ8AQ6XEN,MIM_I,1,MIM_I_im,8,36,1,628,5,dishonest,MIM_IC_color,,0,87.5,,0,,0
6.2.1,win,7/21/20,17:52:47,6,39ASUFLU6ZMYPL1GB7L8HVJ8AQ6XEN,MIM_I,1,MIM_I_att,9,36,0,2906,7,beautiful,MIM_IC_color,,0,77.77777778,,0,,0
6.2.1,win,7/21/20,17:52:47,6,39ASUFLU6ZMYPL1GB7L8HVJ8AQ6XEN,MIM_I,1,MIM_I_att,10,36,1,1212,4,handsome,MIM_IC_color,,0,80,,0,,0
6.2.1,win,7/21/20,17:52:47,6,39ASUFLU6ZMYPL1GB7L8HVJ8AQ6XEN,MIM_I,1,MIM_I_m,11,33,1,946,6,truthful,MIM_IC_color,,0,81.81818182,,0,,0
6.2.1,win,7/21/20,17:52:47,6,39ASUFLU6ZMYPL1GB7L8HVJ8AQ6XEN,MIMC_I_practice,2,pMIMD_I_att,3,36,0,9473,3,gorgeous,MIM_IC_color,,0,100,,366.6666667,,0
6.2.1,win,7/21/20,17:52:47,6,39ASUFLU6ZMYPL1GB7L8HVJ8AQ6XEN,MIMC_I_practice,2,pMIMD_I_m,4,33,1,1228,1,moral,MIM_IC_color,,0,109.0909091,,300,,0
6.2.1,win,7/21/20,17:52:47,6,39ASUFLU6ZMYPL1GB7L8HVJ8AQ6XEN,MIMC_I_practice,2,pMIMD_I_att,5,36,1,857,2,good-looking,MIM_IC_color,,0,118.1818182,,260,,0
6.2.1,win,7/21/20,17:52:47,6,39ASUFLU6ZMYPL1GB7L8HVJ8AQ6XEN,MIMC_I_practice,2,pMIMD_I_att,6,36,1,846,8,stunning,MIM_IC_color,,0,127.2727273,,233.3333333,,0
6.2.1,win,7/21/20,17:52:47,6,39ASUFLU6ZMYPL1GB7L8HVJ8AQ6XEN,MIMC_I_practice,2,pMIMD_I_c,7,57,1,1323,5,brown,MIM_IC_color,,0,136.3636364,,214.2857143,,0
6.2.1,win,7/21/20,17:52:47,6,39ASUFLU6ZMYPL1GB7L8HVJ8AQ6XEN,MIMC_I_practice,2,pMIMD_I_m,8,33,1,1501,2,ethical,MIM_IC_color,,0,145.4545455,,200,,0
6.2.1,win,7/21/20,17:52:47,6,39ASUFLU6ZMYPL1GB7L8HVJ8AQ6XEN,MIMC_I_practice,2,pMIMD_I_m,9,33,1,879,3,virtuous,MIM_IC_color,,0,154.5454545,,188.8888889,,0
6.2.1,win,7/21/20,17:52:47,6,39ASUFLU6ZMYPL1GB7L8HVJ8AQ6XEN,MIMC_I_practice,2,pMIMD_I_im,10,36,1,803,7,untrustworthy,MIM_IC_color,,0,163.6363636,,180,,0
6.2.1,win,7/21/20,17:52:47,6,39ASUFLU6ZMYPL1GB7L8HVJ8AQ6XEN,MIMC_I_practice,2,pMIMD_I_im,11,36,1,785,8,corrupt,MIM_IC_color,,0,172.7272727,,172.7272727,,0
6.2.1,win,7/21/20,17:52:47,6,39ASUFLU6ZMYPL1GB7L8HVJ8AQ6XEN,MIMC_I_practice,2,pMIMD_I_m,12,33,1,1081,8,principled,MIM_IC_color,,0,181.8181818,,166.6666667,,0
6.2.1,win,7/21/20,17:52:47,6,39ASUFLU6ZMYPL1GB7L8HVJ8AQ6XEN,MIMC_I_practice,2,pMIMD_I_c,13,57,1,1092,2,yellow,MIM_IC_color,,0,190.9090909,,161.5384615,,0
6.2.1,win,7/21/20,17:52:47,6,39ASUFLU6ZMYPL1GB7L8HVJ8AQ6XEN,MIMC_I_practice,2,pMIMD_I_im,14,36,1,959,3,unfair,MIM_IC_color,,0,200,,157.1428571,,0
6.2.1,win,7/21/20,17:52:47,6,39ASUFLU6ZMYPL1GB7L8HVJ8AQ6XEN,MIMC_I_practice,2,pMIMD_I_att,15,36,1,1096,5,pretty,MIM_IC_color,,0,209.0909091,,153.3333333,,0
6.2.1,win,7/21/20,17:52:47,6,39ASUFLU6ZMYPL1GB7L8HVJ8AQ6XEN,MIMC_I_practice,2,pMIMD_I_c,16,57,1,1323,8,gray,MIM_IC_color,,0,218.1818182,,150,,0
6.2.1,win,7/21/20,17:52:47,6,39ASUFLU6ZMYPL1GB7L8HVJ8AQ6XEN,MIMC_I_practice,2,pMIMD_I_c,17,57,1,741,4,purple,MIM_IC_color,,0,227.2727273,,147.0588235,,0
6.2.1,win,7/21/20,17:52:47,6,39ASUFLU6ZMYPL1GB7L8HVJ8AQ6XEN,MIMC_I_practice,2,pMIMD_I_im,18,36,1,934,4,deceitful,MIM_IC_color,,0,236.3636364,,144.4444444,,0
6.2.1,win,7/21/20,17:52:47,6,39ASUFLU6ZMYPL1GB7L8HVJ8AQ6XEN,MIMC_I_test,3,MIMD_I_m,2,33,1,987,5,honest,MIM_IC_color,,0,254.5454545,,155.5555556,0.731099883,1400
6.2.1,win,7/21/20,17:52:47,6,39ASUFLU6ZMYPL1GB7L8HVJ8AQ6XEN,MIMC_I_test,3,MIMD_I_im,3,36,1,674,2,unethical,MIM_IC_color,,0,263.6363636,,161.1111111,0.663449752,966.6666667
6.2.1,win,7/21/20,17:52:47,6,39ASUFLU6ZMYPL1GB7L8HVJ8AQ6XEN,MIMC_I_test,3,MIMD_I_m,4,33,1,830,3,virtuous,MIM_IC_color,,0,272.7272727,,166.6666667,0.626328505,750
6.2.1,win,7/21/20,17:52:47,6,39ASUFLU6ZMYPL1GB7L8HVJ8AQ6XEN,MIMC_I_test,3,MIMD_I_att,5,36,1,836,1,attractive,MIM_IC_color,,0,281.8181818,,172.2222222,0.602335172,620
6.2.1,win,7/21/20,17:52:47,6,39ASUFLU6ZMYPL1GB7L8HVJ8AQ6XEN,MIMC_I_test,3,MIMD_I_c,6,57,1,801,6,orange,MIM_IC_color,,0,290.9090909,,177.7777778,0.584892089,533.3333333
6.2.1,win,7/21/20,17:52:47,6,39ASUFLU6ZMYPL1GB7L8HVJ8AQ6XEN,MIMC_I_test,3,MIMD_I_im,7,36,1,808,6,unprincipled,MIM_IC_color,,0,300,,183.3333333,0.573416686,471.4285714
6.2.1,win,7/21/20,17:52:47,6,39ASUFLU6ZMYPL1GB7L8HVJ8AQ6XEN,MIMC_I_test,3,MIMD_I_att,8,36,1,894,1,attractive,MIM_IC_color,,0,309.0909091,,188.8888889,0.569121485,425
6.2.1,win,7/21/20,17:52:47,6,39ASUFLU6ZMYPL1GB7L8HVJ8AQ6XEN,MIMC_I_test,3,MIMD_I_im,9,36,0,1138,7,untrustworthy,MIM_IC_color,,0,309.0909091,,188.8888889,0.575774688,377.7777778
6.2.1,win,7/21/20,17:52:47,6,39ASUFLU6ZMYPL1GB7L8HVJ8AQ6XEN,MIMC_I_test,3,MIMD_I_c,10,57,1,899,3,red,MIM_IC_color,,0,318.1818182,,194.4444444,0.5749978,350
6.2.1,win,7/21/20,17:52:47,6,39ASUFLU6ZMYPL1GB7L8HVJ8AQ6XEN,MIMC_I_test,3,MIMD_I_im,11,36,1,750,4,deceitful,MIM_IC_color,,0,327.2727273,,200,0.570591456,327.2727273
6.2.1,win,7/21/20,17:52:47,6,39ASUFLU6ZMYPL1GB7L8HVJ8AQ6XEN,MIMC_I_test,3,MIMD_I_att,12,36,1,758,4,handsome,MIM_IC_color,,0,336.3636364,,205.5555556,0.567887601,308.3333333
6.2.1,win,7/21/20,17:52:47,6,39ASUFLU6ZMYPL1GB7L8HVJ8AQ6XEN,MIMC_I_test,3,MIMD_I_att,13,36,1,711,2,good-looking,MIM_IC_color,,0,345.4545455,,211.1111111,0.564872847,292.3076923
6.2.1,win,7/21/20,17:52:47,6,39ASUFLU6ZMYPL1GB7L8HVJ8AQ6XEN,MIMC_I_test,3,MIMD_I_c,14,57,1,858,1,blue,MIM_IC_color,,0,354.5454545,,216.6666667,0.567062695,278.5714286
6.2.1,win,7/21/20,17:52:47,6,39ASUFLU6ZMYPL1GB7L8HVJ8AQ6XEN,MIMC_I_test,3,MIMD_I_im,15,36,1,750,5,dishonest,MIM_IC_color,,0,363.6363636,,222.2222222,0.56676693,266.6666667
6.2.1,win,7/21/20,17:52:47,6,39ASUFLU6ZMYPL1GB7L8HVJ8AQ6XEN,MIMC_I_test,3,MIMD_I_att,16,36,1,799,6,sexy,MIM_IC_color,,0,372.7272727,,227.7777778,0.568365078,256.25
6.2.1,win,7/21/20,17:52:47,6,39ASUFLU6ZMYPL1GB7L8HVJ8AQ6XEN,MIMC_I_test,3,MIMD_I_c,17,57,1,1022,7,green,MIM_IC_color,,0,381.8181818,,233.3333333,0.575900954,247.0588235
6.2.1,win,7/21/20,17:52:47,6,39ASUFLU6ZMYPL1GB7L8HVJ8AQ6XEN,MIMC_I_test,3,MIMD_I_im,18,36,1,724,3,unfair,MIM_IC_color,,0,390.9090909,,238.8888889,0.576164691,238.8888889
6.2.1,win,7/21/20,17:52:47,6,39ASUFLU6ZMYPL1GB7L8HVJ8AQ6XEN,MIMC_I_test,3,MIMD_I_c,19,57,1,1022,6,orange,MIM_IC_color,,0,400,,244.4444444,0.583829762,231.5789474
6.2.1,win,7/21/20,17:52:47,6,39ASUFLU6ZMYPL1GB7L8HVJ8AQ6XEN,MIMC_I_test,3,MIMD_I_m,20,33,1,796,6,truthful,MIM_IC_color,,0,409.0909091,,250,0.586304246,225
6.2.1,win,7/21/20,17:52:47,6,39ASUFLU6ZMYPL1GB7L8HVJ8AQ6XEN,MIMC_I_test,3,MIMD_I_m,21,33,1,707,4,fair,MIM_IC_color,,0,418.1818182,,255.5555556,0.58694811,219.047619
6.2.1,win,7/21/20,17:52:47,6,39ASUFLU6ZMYPL1GB7L8HVJ8AQ6XEN,MIMC_I_test,3,MIMD_I_m,22,33,1,846,2,ethical,MIM_IC_color,,0,427.2727273,,261.1111111,0.590948057,213.6363636
6.2.1,win,7/21/20,17:52:47,6,39ASUFLU6ZMYPL1GB7L8HVJ8AQ6XEN,MIMC_I_test,3,MIMD_I_m,23,33,1,643,8,principled,MIM_IC_color,,0,436.3636364,,266.6666667,0.590619802,208.6956522
6.2.1,win,7/21/20,17:52:47,6,39ASUFLU6ZMYPL1GB7L8HVJ8AQ6XEN,MIMC_I_test,3,MIMD_I_att,24,36,0,1224,8,stunning,MIM_IC_color,,0,436.3636364,,266.6666667,0.602235727,200
6.2.1,win,7/21/20,17:52:47,6,39ASUFLU6ZMYPL1GB7L8HVJ8AQ6XEN,MIMC_I_test,3,MIMD_I_im,25,36,1,870,2,unethical,MIM_IC_color,,0,445.4545455,,272.2222222,0.606833367,196
6.2.1,win,7/21/20,17:52:47,6,39ASUFLU6ZMYPL1GB7L8HVJ8AQ6XEN,MIMC_I_test,3,MIMD_I_c,26,57,1,826,1,blue,MIM_IC_color,,0,454.5454545,,277.7777778,0.610587477,192.3076923
6.2.1,win,7/21/20,17:52:47,6,39ASUFLU6ZMYPL1GB7L8HVJ8AQ6XEN,MIMC_I_test,3,MIMD_I_m,27,33,1,1128,5,honest,MIM_IC_color,,0,463.6363636,,283.3333333,0.619973668,188.8888889
6.2.1,win,7/21/20,17:52:47,6,39ASUFLU6ZMYPL1GB7L8HVJ8AQ6XEN,MIMC_I_test,3,MIMD_I_c,28,57,1,898,5,brown,MIM_IC_color,,0,472.7272727,,288.8888889,0.625049132,185.7142857
6.2.1,win,7/21/20,17:52:47,6,39ASUFLU6ZMYPL1GB7L8HVJ8AQ6XEN,MIMC_I_test,3,MIMD_I_m,29,33,1,749,7,trustworthy,MIM_IC_color,,0,481.8181818,,294.4444444,0.627328719,182.7586207
6.2.1,win,7/21/20,17:52:47,6,39ASUFLU6ZMYPL1GB7L8HVJ8AQ6XEN,MIMC_I_test,3,MIMD_I_c,30,57,1,822,7,green,MIM_IC_color,,0,490.9090909,,300,0.631049787,180
6.2.1,win,7/21/20,17:52:47,6,39ASUFLU6ZMYPL1GB7L8HVJ8AQ6XEN,MIMC_I_test,3,MIMD_I_im,31,36,1,1020,8,corrupt,MIM_IC_color,,0,500,,305.5555556,0.638224308,177.4193548
6.2.1,win,7/21/20,17:52:47,6,39ASUFLU6ZMYPL1GB7L8HVJ8AQ6XEN,MIMC_I_test,3,MIMD_I_att,32,36,1,722,7,beautiful,MIM_IC_color,,0,509.0909091,,311.1111111,0.640133561,175
6.2.1,win,7/21/20,17:52:47,6,39ASUFLU6ZMYPL1GB7L8HVJ8AQ6XEN,MIMC_I_test,3,MIMD_I_att,33,36,1,724,5,pretty,MIM_IC_color,,0,518.1818182,,316.6666667,0.642163178,172.7272727
6.2.1,win,7/21/20,17:52:47,6,39ASUFLU6ZMYPL1GB7L8HVJ8AQ6XEN,MIM_C,4,MIM_C_m,3,33,1,1322,1,moral,MIM_IC_color,,0,428.5714286,,333.3333333,0.642163178,181.8181818
6.2.1,win,7/21/20,17:52:47,6,39ASUFLU6ZMYPL1GB7L8HVJ8AQ6XEN,MIM_C,4,MIM_C_att,4,33,1,644,3,gorgeous,MIM_IC_color,,0,406.6666667,,338.8888889,0.642163178,184.8484848
6.2.1,win,7/21/20,17:52:47,6,39ASUFLU6ZMYPL1GB7L8HVJ8AQ6XEN,MIM_C,4,MIM_C_att,5,33,1,553,5,pretty,MIM_IC_color,,0,387.5,,344.4444444,0.642163178,187.8787879
6.2.1,win,7/21/20,17:52:47,6,39ASUFLU6ZMYPL1GB7L8HVJ8AQ6XEN,MIM_C,4,MIM_C_im,6,36,1,818,1,immoral,MIM_IC_color,,0,370.5882353,,350,0.642163178,190.9090909
6.2.1,win,7/21/20,17:52:47,6,39ASUFLU6ZMYPL1GB7L8HVJ8AQ6XEN,MIM_C,4,MIM_C_att,7,33,1,640,2,good-looking,MIM_IC_color,,0,355.5555556,,355.5555556,0.642163178,193.9393939
6.2.1,win,7/21/20,17:52:47,6,39ASUFLU6ZMYPL1GB7L8HVJ8AQ6XEN,MIM_C,4,MIM_C_m,8,33,1,525,4,fair,MIM_IC_color,,0,342.1052632,,361.1111111,0.642163178,196.969697
6.2.1,win,7/21/20,17:52:47,6,39ASUFLU6ZMYPL1GB7L8HVJ8AQ6XEN,MIM_C,4,MIM_C_im,9,36,1,694,6,unprincipled,MIM_IC_color,,0,330,,366.6666667,0.642163178,200
6.2.1,win,7/21/20,17:52:47,6,39ASUFLU6ZMYPL1GB7L8HVJ8AQ6XEN,MIM_C,4,MIM_C_im,10,36,1,706,4,deceitful,MIM_IC_color,,0,319.047619,,372.2222222,0.642163178,203.030303
6.2.1,win,7/21/20,17:52:47,6,39ASUFLU6ZMYPL1GB7L8HVJ8AQ6XEN,MIM_C,4,MIM_C_m,11,33,1,676,6,truthful,MIM_IC_color,,0,309.0909091,,377.7777778,0.642163178,206.0606061
6.2.1,win,7/21/20,17:52:47,6,39ASUFLU6ZMYPL1GB7L8HVJ8AQ6XEN,MIMC_C_practice,5,pMIMD_C_m,3,33,1,1593,2,ethical,MIM_IC_color,,0,322.7272727,,338.0952381,0.642163178,215.1515152
6.2.1,win,7/21/20,17:52:47,6,39ASUFLU6ZMYPL1GB7L8HVJ8AQ6XEN,MIMC_C_practice,5,pMIMD_C_m,4,33,1,912,8,principled,MIM_IC_color,,0,327.2727273,,327.2727273,0.642163178,218.1818182
6.2.1,win,7/21/20,17:52:47,6,39ASUFLU6ZMYPL1GB7L8HVJ8AQ6XEN,MIMC_C_practice,5,pMIMD_C_att,5,33,1,778,1,attractive,MIM_IC_color,,0,331.8181818,,317.3913043,0.642163178,221.2121212
6.2.1,win,7/21/20,17:52:47,6,39ASUFLU6ZMYPL1GB7L8HVJ8AQ6XEN,MIMC_C_practice,5,pMIMD_C_im,6,36,1,906,2,unethical,MIM_IC_color,,0,336.3636364,,308.3333333,0.642163178,224.2424242
6.2.1,win,7/21/20,17:52:47,6,39ASUFLU6ZMYPL1GB7L8HVJ8AQ6XEN,MIMC_C_practice,5,pMIMD_C_m,7,33,1,877,1,moral,MIM_IC_color,,0,340.9090909,,300,0.642163178,227.2727273
6.2.1,win,7/21/20,17:52:47,6,39ASUFLU6ZMYPL1GB7L8HVJ8AQ6XEN,MIMC_C_practice,5,pMIMD_C_c,8,57,1,809,3,red,MIM_IC_color,,0,345.4545455,,292.3076923,0.642163178,230.3030303
6.2.1,win,7/21/20,17:52:47,6,39ASUFLU6ZMYPL1GB7L8HVJ8AQ6XEN,MIMC_C_practice,5,pMIMD_C_im,9,36,1,824,3,unfair,MIM_IC_color,,0,350,,285.1851852,0.642163178,233.3333333
6.2.1,win,7/21/20,17:52:47,6,39ASUFLU6ZMYPL1GB7L8HVJ8AQ6XEN,MIMC_C_practice,5,pMIMD_C_c,10,57,1,806,2,yellow,MIM_IC_color,,0,354.5454545,,278.5714286,0.642163178,236.3636364
6.2.1,win,7/21/20,17:52:47,6,39ASUFLU6ZMYPL1GB7L8HVJ8AQ6XEN,MIMC_C_practice,5,pMIMD_C_att,11,33,1,876,4,handsome,MIM_IC_color,,0,359.0909091,,272.4137931,0.642163178,239.3939394
6.2.1,win,7/21/20,17:52:47,6,39ASUFLU6ZMYPL1GB7L8HVJ8AQ6XEN,MIMC_C_practice,5,pMIMD_C_m,12,33,1,688,5,honest,MIM_IC_color,,0,363.6363636,,266.6666667,0.642163178,242.4242424
6.2.1,win,7/21/20,17:52:47,6,39ASUFLU6ZMYPL1GB7L8HVJ8AQ6XEN,MIMC_C_practice,5,pMIMD_C_c,13,57,1,1083,8,gray,MIM_IC_color,,0,368.1818182,,261.2903226,0.642163178,245.4545455
6.2.1,win,7/21/20,17:52:47,6,39ASUFLU6ZMYPL1GB7L8HVJ8AQ6XEN,MIMC_C_practice,5,pMIMD_C_im,14,36,1,719,5,dishonest,MIM_IC_color,,0,372.7272727,,256.25,0.642163178,248.4848485
6.2.1,win,7/21/20,17:52:47,6,39ASUFLU6ZMYPL1GB7L8HVJ8AQ6XEN,MIMC_C_practice,5,pMIMD_C_att,15,33,1,753,6,sexy,MIM_IC_color,,0,377.2727273,,251.5151515,0.642163178,251.5151515
6.2.1,win,7/21/20,17:52:47,6,39ASUFLU6ZMYPL1GB7L8HVJ8AQ6XEN,MIMC_C_practice,5,pMIMD_C_c,16,57,1,961,4,purple,MIM_IC_color,,0,381.8181818,,247.0588235,0.642163178,254.5454545
6.2.1,win,7/21/20,17:52:47,6,39ASUFLU6ZMYPL1GB7L8HVJ8AQ6XEN,MIMC_C_practice,5,pMIMD_C_im,17,36,1,705,1,immoral,MIM_IC_color,,0,386.3636364,,242.8571429,0.642163178,257.5757576
6.2.1,win,7/21/20,17:52:47,6,39ASUFLU6ZMYPL1GB7L8HVJ8AQ6XEN,MIMC_C_practice,5,pMIMD_C_att,18,33,1,716,3,gorgeous,MIM_IC_color,,0,390.9090909,,238.8888889,0.642163178,260.6060606
6.2.1,win,7/21/20,17:52:47,6,39ASUFLU6ZMYPL1GB7L8HVJ8AQ6XEN,MIMC_C_test,6,MIMD_C_im,2,36,1,921,8,corrupt,MIM_IC_color,,0,400,,244.4444444,-1.337695849,251.4285714
6.2.1,win,7/21/20,17:52:47,6,39ASUFLU6ZMYPL1GB7L8HVJ8AQ6XEN,MIMC_C_test,6,MIMD_C_att,3,33,1,875,8,stunning,MIM_IC_color,,0,404.5454545,,247.2222222,-0.987257659,247.2222222
6.2.1,win,7/21/20,17:52:47,6,39ASUFLU6ZMYPL1GB7L8HVJ8AQ6XEN,MIMC_C_test,6,MIMD_C_att,4,33,1,631,7,beautiful,MIM_IC_color,,0,409.0909091,,250,-0.727238015,243.2432432
6.2.1,win,7/21/20,17:52:47,6,39ASUFLU6ZMYPL1GB7L8HVJ8AQ6XEN,MIMC_C_test,6,MIMD_C_c,5,57,1,732,7,green,MIM_IC_color,,0,413.6363636,,252.7777778,-0.560267546,239.4736842
6.2.1,win,7/21/20,17:52:47,6,39ASUFLU6ZMYPL1GB7L8HVJ8AQ6XEN,MIMC_C_test,6,MIMD_C_im,6,36,1,645,7,untrustworthy,MIM_IC_color,,0,418.1818182,,255.5555556,-0.434654684,235.8974359
6.2.1,win,7/21/20,17:52:47,6,39ASUFLU6ZMYPL1GB7L8HVJ8AQ6XEN,MIMC_C_test,6,MIMD_C_att,7,33,1,722,1,attractive,MIM_IC_color,,0,422.7272727,,258.3333333,-0.347395217,232.5
6.2.1,win,7/21/20,17:52:47,6,39ASUFLU6ZMYPL1GB7L8HVJ8AQ6XEN,MIMC_C_test,6,MIMD_C_att,8,33,1,692,2,good-looking,MIM_IC_color,,0,427.2727273,,261.1111111,-0.278341124,229.2682927
6.2.1,win,7/21/20,17:52:47,6,39ASUFLU6ZMYPL1GB7L8HVJ8AQ6XEN,MIMC_C_test,6,MIMD_C_im,9,36,1,959,6,unprincipled,MIM_IC_color,,0,431.8181818,,263.8888889,-0.239698745,226.1904762
6.2.1,win,7/21/20,17:52:47,6,39ASUFLU6ZMYPL1GB7L8HVJ8AQ6XEN,MIMC_C_test,6,MIMD_C_c,10,57,1,624,4,purple,MIM_IC_color,,0,436.3636364,,266.6666667,-0.189931145,223.255814
6.2.1,win,7/21/20,17:52:47,6,39ASUFLU6ZMYPL1GB7L8HVJ8AQ6XEN,MIMC_C_test,6,MIMD_C_c,11,57,1,838,3,red,MIM_IC_color,,0,440.9090909,,269.4444444,-0.159374193,220.4545455
6.2.1,win,7/21/20,17:52:47,6,39ASUFLU6ZMYPL1GB7L8HVJ8AQ6XEN,MIMC_C_test,6,MIMD_C_c,12,57,1,595,5,brown,MIM_IC_color,,0,445.4545455,,272.2222222,-0.122124009,217.7777778
6.2.1,win,7/21/20,17:52:47,6,39ASUFLU6ZMYPL1GB7L8HVJ8AQ6XEN,MIMC_C_test,6,MIMD_C_m,13,33,1,1178,7,trustworthy,MIM_IC_color,,0,450,,275,-0.115534292,215.2173913
6.2.1,win,7/21/20,17:52:47,6,39ASUFLU6ZMYPL1GB7L8HVJ8AQ6XEN,MIMC_C_test,6,MIMD_C_im,14,36,1,809,4,deceitful,MIM_IC_color,,0,454.5454545,,277.7777778,-0.094796461,212.7659574
6.2.1,win,7/21/20,17:52:47,6,39ASUFLU6ZMYPL1GB7L8HVJ8AQ6XEN,MIMC_C_test,6,MIMD_C_c,15,57,1,864,8,gray,MIM_IC_color,,0,459.0909091,,280.5555556,-0.07867004,210.4166667
6.2.1,win,7/21/20,17:52:47,6,39ASUFLU6ZMYPL1GB7L8HVJ8AQ6XEN,MIMC_C_test,6,MIMD_C_att,16,33,1,716,3,gorgeous,MIM_IC_color,,0,463.6363636,,283.3333333,-0.058924606,208.1632653
6.2.1,win,7/21/20,17:52:47,6,39ASUFLU6ZMYPL1GB7L8HVJ8AQ6XEN,MIMC_C_test,6,MIMD_C_m,17,33,1,814,3,virtuous,MIM_IC_color,,0,468.1818182,,286.1111111,-0.044616001,206
6.2.1,win,7/21/20,17:52:47,6,39ASUFLU6ZMYPL1GB7L8HVJ8AQ6XEN,MIMC_C_test,6,MIMD_C_im,18,36,1,1004,3,unfair,MIM_IC_color,,0,472.7272727,,288.8888889,-0.037969074,203.9215686
6.2.1,win,7/21/20,17:52:47,6,39ASUFLU6ZMYPL1GB7L8HVJ8AQ6XEN,MIMC_C_test,6,MIMD_C_im,19,36,1,715,5,dishonest,MIM_IC_color,,0,477.2727273,,291.6666667,-0.022784907,201.9230769
6.2.1,win,7/21/20,17:52:47,6,39ASUFLU6ZMYPL1GB7L8HVJ8AQ6XEN,MIMC_C_test,6,MIMD_C_m,20,33,1,709,4,fair,MIM_IC_color,,0,481.8181818,,294.4444444,-0.008701108,200
6.2.1,win,7/21/20,17:52:47,6,39ASUFLU6ZMYPL1GB7L8HVJ8AQ6XEN,MIMC_C_test,6,MIMD_C_att,21,33,1,839,6,sexy,MIM_IC_color,,0,486.3636364,,297.2222222,0.000484126,198.1481481
6.2.1,win,7/21/20,17:52:47,6,39ASUFLU6ZMYPL1GB7L8HVJ8AQ6XEN,MIMC_C_test,6,MIMD_C_m,22,33,1,709,7,trustworthy,MIM_IC_color,,0,490.9090909,,300,0.012627825,196.3636364
6.2.1,win,7/21/20,17:52:47,6,39ASUFLU6ZMYPL1GB7L8HVJ8AQ6XEN,MIMC_C_test,6,MIMD_C_m,23,33,1,583,6,truthful,MIM_IC_color,,0,495.4545455,,302.7777778,0.027309633,194.6428571
6.2.1,win,7/21/20,17:52:47,6,39ASUFLU6ZMYPL1GB7L8HVJ8AQ6XEN,MIMC_C_test,6,MIMD_C_im,24,36,1,695,1,immoral,MIM_IC_color,,0,500,,305.5555556,0.03809086,192.9824561
6.2.1,win,7/21/20,17:52:47,6,39ASUFLU6ZMYPL1GB7L8HVJ8AQ6XEN,MIMC_C_test,6,MIMD_C_att,25,33,1,729,7,beautiful,MIM_IC_color,,0,504.5454545,,308.3333333,0.047338754,191.3793103
6.2.1,win,7/21/20,17:52:47,6,39ASUFLU6ZMYPL1GB7L8HVJ8AQ6XEN,MIMC_C_test,6,MIMD_C_c,26,57,1,987,6,orange,MIM_IC_color,,0,509.0909091,,311.1111111,0.049738498,189.8305085
6.2.1,win,7/21/20,17:52:47,6,39ASUFLU6ZMYPL1GB7L8HVJ8AQ6XEN,MIMC_C_test,6,MIMD_C_m,27,33,1,1202,8,principled,MIM_IC_color,,0,513.6363636,,313.8888889,0.046902007,188.3333333
6.2.1,win,7/21/20,17:52:47,6,39ASUFLU6ZMYPL1GB7L8HVJ8AQ6XEN,MIMC_C_test,6,MIMD_C_att,28,33,1,657,5,pretty,MIM_IC_color,,0,518.1818182,,316.6666667,0.05682182,186.8852459
6.2.1,win,7/21/20,17:52:47,6,39ASUFLU6ZMYPL1GB7L8HVJ8AQ6XEN,MIMC_C_test,6,MIMD_C_m,29,33,1,717,3,virtuous,MIM_IC_color,,0,522.7272727,,319.4444444,0.064880853,185.483871
6.2.1,win,7/21/20,17:52:47,6,39ASUFLU6ZMYPL1GB7L8HVJ8AQ6XEN,MIMC_C_test,6,MIMD_C_m,30,33,1,800,2,ethical,MIM_IC_color,,0,527.2727273,,322.2222222,0.070735111,184.1269841
6.2.1,win,7/21/20,17:52:47,6,39ASUFLU6ZMYPL1GB7L8HVJ8AQ6XEN,MIMC_C_test,6,MIMD_C_c,31,57,1,926,1,blue,MIM_IC_color,,0,531.8181818,,325,0.073640047,182.8125
6.2.1,win,7/21/20,17:52:47,6,39ASUFLU6ZMYPL1GB7L8HVJ8AQ6XEN,MIMC_C_test,6,MIMD_C_c,32,57,1,640,2,yellow,MIM_IC_color,,0,536.3636364,,327.7777778,0.082354066,181.5384615
6.2.1,win,7/21/20,17:52:47,6,39ASUFLU6ZMYPL1GB7L8HVJ8AQ6XEN,MIMC_C_test,6,MIMD_C_im,33,36,1,710,7,untrustworthy,MIM_IC_color,,0,540.9090909,,330.5555556,0.0892716,180.3030303
6.2.1,win,7/21/20,18:55:13,1,3OS46CRSLHE28H365A1SHMUADHAV6X,MIM_C,1,MIM_C_m,3,33,1,1071,2,ethical,MIM_CI_vain,,0,100,,0,,0
6.2.1,win,7/21/20,18:55:13,1,3OS46CRSLHE28H365A1SHMUADHAV6X,MIM_C,1,MIM_C_att,4,33,1,628,1,attractive,MIM_CI_vain,,0,100,,0,,0
6.2.1,win,7/21/20,18:55:13,1,3OS46CRSLHE28H365A1SHMUADHAV6X,MIM_C,1,MIM_C_att,5,33,1,552,2,good-looking,MIM_CI_vain,,0,100,,0,,0
6.2.1,win,7/21/20,18:55:13,1,3OS46CRSLHE28H365A1SHMUADHAV6X,MIM_C,1,MIM_C_im,6,36,1,774,4,deceitful,MIM_CI_vain,,0,100,,0,,0
6.2.1,win,7/21/20,18:55:13,1,3OS46CRSLHE28H365A1SHMUADHAV6X,MIM_C,1,MIM_C_im,7,36,1,517,5,dishonest,MIM_CI_vain,,0,100,,0,,0
6.2.1,win,7/21/20,18:55:13,1,3OS46CRSLHE28H365A1SHMUADHAV6X,MIM_C,1,MIM_C_m,8,33,1,600,7,trustworthy,MIM_CI_vain,,0,100,,0,,0
6.2.1,win,7/21/20,18:55:13,1,3OS46CRSLHE28H365A1SHMUADHAV6X,MIM_C,1,MIM_C_att,9,33,1,616,5,pretty,MIM_CI_vain,,0,100,,0,,0
6.2.1,win,7/21/20,18:55:13,1,3OS46CRSLHE28H365A1SHMUADHAV6X,MIM_C,1,MIM_C_m,10,33,1,462,4,fair,MIM_CI_vain,,0,100,,0,,0
6.2.1,win,7/21/20,18:55:13,1,3OS46CRSLHE28H365A1SHMUADHAV6X,MIM_C,1,MIM_C_im,11,36,1,540,8,corrupt,MIM_CI_vain,,0,100,,0,,0
6.2.1,win,7/21/20,18:55:13,1,3OS46CRSLHE28H365A1SHMUADHAV6X,MIMV_C_practice,2,pMIMD_C_im,3,36,1,1512,3,unfair,MIM_CI_vain,,0,127.2727273,,466.6666667,,0
6.2.1,win,7/21/20,18:55:13,1,3OS46CRSLHE28H365A1SHMUADHAV6X,MIMV_C_practice,2,pMIMD_C_att,4,33,1,749,8,stunning,MIM_CI_vain,,0,136.3636364,,375,,0
6.2.1,win,7/21/20,18:55:13,1,3OS46CRSLHE28H365A1SHMUADHAV6X,MIMV_C_practice,2,pMIMD_C_v,5,57,0,5961,3,self-absorbed,MIM_CI_vain,,0,136.3636364,,300,,0
6.2.1,win,7/21/20,18:55:13,1,3OS46CRSLHE28H365A1SHMUADHAV6X,MIMV_C_practice,2,pMIMD_C_att,6,33,1,2522,6,sexy,MIM_CI_vain,,0,145.4545455,,266.6666667,,0
6.2.1,win,7/21/20,18:55:13,1,3OS46CRSLHE28H365A1SHMUADHAV6X,MIMV_C_practice,2,pMIMD_C_im,7,36,1,609,1,immoral,MIM_CI_vain,,0,154.5454545,,242.8571429,,0
6.2.1,win,7/21/20,18:55:13,1,3OS46CRSLHE28H365A1SHMUADHAV6X,MIMV_C_practice,2,pMIMD_C_im,8,36,1,812,6,unprincipled,MIM_CI_vain,,0,163.6363636,,225,,0
6.2.1,win,7/21/20,18:55:13,1,3OS46CRSLHE28H365A1SHMUADHAV6X,MIMV_C_practice,2,pMIMD_C_m,9,33,1,581,5,honest,MIM_CI_vain,,0,172.7272727,,211.1111111,,0
6.2.1,win,7/21/20,18:55:13,1,3OS46CRSLHE28H365A1SHMUADHAV6X,MIMV_C_practice,2,pMIMD_C_v,10,57,0,2328,4,prideful,MIM_CI_vain,,0,172.7272727,,190,,0
6.2.1,win,7/21/20,18:55:13,1,3OS46CRSLHE28H365A1SHMUADHAV6X,MIMV_C_practice,2,pMIMD_C_m,11,33,1,1700,6,truthful,MIM_CI_vain,,0,181.8181818,,181.8181818,,0
6.2.1,win,7/21/20,18:55:13,1,3OS46CRSLHE28H365A1SHMUADHAV6X,MIMV_C_practice,2,pMIMD_C_v,12,57,0,1778,6,arrogant,MIM_CI_vain,,0,181.8181818,,166.6666667,,0
6.2.1,win,7/21/20,18:55:13,1,3OS46CRSLHE28H365A1SHMUADHAV6X,MIMV_C_practice,2,pMIMD_C_att,13,33,1,1234,7,beautiful,MIM_CI_vain,,0,190.9090909,,161.5384615,,0
6.2.1,win,7/21/20,18:55:13,1,3OS46CRSLHE28H365A1SHMUADHAV6X,MIMV_C_practice,2,pMIMD_C_m,14,33,1,700,1,moral,MIM_CI_vain,,0,200,,157.1428571,,0
6.2.1,win,7/21/20,18:55:13,1,3OS46CRSLHE28H365A1SHMUADHAV6X,MIMV_C_practice,2,pMIMD_C_m,15,33,1,664,8,principled,MIM_CI_vain,,0,209.0909091,,153.3333333,,0
6.2.1,win,7/21/20,18:55:13,1,3OS46CRSLHE28H365A1SHMUADHAV6X,MIMV_C_practice,2,pMIMD_C_v,16,57,1,1204,5,egocentric,MIM_CI_vain,,0,218.1818182,,150,,0
6.2.1,win,7/21/20,18:55:13,1,3OS46CRSLHE28H365A1SHMUADHAV6X,MIMV_C_practice,2,pMIMD_C_att,17,33,1,778,4,handsome,MIM_CI_vain,,0,227.2727273,,147.0588235,,0
6.2.1,win,7/21/20,18:55:13,1,3OS46CRSLHE28H365A1SHMUADHAV6X,MIMV_C_practice,2,pMIMD_C_im,18,36,1,603,2,unethical,MIM_CI_vain,,0,236.3636364,,144.4444444,,0
6.2.1,win,7/21/20,18:55:13,1,3OS46CRSLHE28H365A1SHMUADHAV6X,MIMV_C_test,3,MIMD_C_v,2,57,1,1549,7,narcissistic,MIM_CI_vain,,0,254.5454545,,155.5555556,-0.996956856,1400
6.2.1,win,7/21/20,18:55:13,1,3OS46CRSLHE28H365A1SHMUADHAV6X,MIMV_C_test,3,MIMD_C_v,3,57,1,1336,8,conceited,MIM_CI_vain,,0,263.6363636,,161.1111111,-1.038518838,966.6666667
6.2.1,win,7/21/20,18:55:13,1,3OS46CRSLHE28H365A1SHMUADHAV6X,MIMV_C_test,3,MIMD_C_att,4,33,1,604,3,gorgeous,MIM_CI_vain,,0,272.7272727,,166.6666667,-0.946949433,750
6.2.1,win,7/21/20,18:55:13,1,3OS46CRSLHE28H365A1SHMUADHAV6X,MIMV_C_test,3,MIMD_C_m,5,33,1,670,3,virtuous,MIM_CI_vain,,0,281.8181818,,172.2222222,-0.906934198,620
6.2.1,win,7/21/20,18:55:13,1,3OS46CRSLHE28H365A1SHMUADHAV6X,MIMV_C_test,3,MIMD_C_v,6,57,1,845,2,superficial,MIM_CI_vain,,0,290.9090909,,177.7777778,-0.90479497,533.3333333
6.2.1,win,7/21/20,18:55:13,1,3OS46CRSLHE28H365A1SHMUADHAV6X,MIMV_C_test,3,MIMD_C_im,7,36,1,666,7,untrustworthy,MIM_CI_vain,,0,300,,183.3333333,-0.88891516,471.4285714
6.2.1,win,7/21/20,18:55:13,1,3OS46CRSLHE28H365A1SHMUADHAV6X,MIMV_C_test,3,MIMD_C_m,8,33,1,690,2,ethical,MIM_CI_vain,,0,309.0909091,,188.8888889,-0.882199004,425
6.2.1,win,7/21/20,18:55:13,1,3OS46CRSLHE28H365A1SHMUADHAV6X,MIMV_C_test,3,MIMD_C_im,9,36,1,989,4,deceitful,MIM_CI_vain,,0,318.1818182,,194.4444444,-0.904286132,388.8888889
6.2.1,win,7/21/20,18:55:13,1,3OS46CRSLHE28H365A1SHMUADHAV6X,MIMV_C_test,3,MIMD_C_im,10,36,1,738,2,unethical,MIM_CI_vain,,0,327.2727273,,200,-0.9064114,360
6.2.1,win,7/21/20,18:55:13,1,3OS46CRSLHE28H365A1SHMUADHAV6X,MIMV_C_test,3,MIMD_C_att,11,33,1,571,4,handsome,MIM_CI_vain,,0,336.3636364,,205.5555556,-0.896897675,336.3636364
6.2.1,win,7/21/20,18:55:13,1,3OS46CRSLHE28H365A1SHMUADHAV6X,MIMV_C_test,3,MIMD_C_att,12,33,1,605,3,gorgeous,MIM_CI_vain,,0,345.4545455,,211.1111111,-0.892984488,316.6666667
6.2.1,win,7/21/20,18:55:13,1,3OS46CRSLHE28H365A1SHMUADHAV6X,MIMV_C_test,3,MIMD_C_im,13,36,1,658,3,unfair,MIM_CI_vain,,0,354.5454545,,216.6666667,-0.894762007,300
6.2.1,win,7/21/20,18:55:13,1,3OS46CRSLHE28H365A1SHMUADHAV6X,MIMV_C_test,3,MIMD_C_v,14,57,1,604,1,vain,MIM_CI_vain,,0,363.6363636,,222.2222222,-0.893966313,285.7142857
6.2.1,win,7/21/20,18:55:13,1,3OS46CRSLHE28H365A1SHMUADHAV6X,MIMV_C_test,3,MIMD_C_v,15,57,1,1161,2,superficial,MIM_CI_vain,,0,372.7272727,,227.7777778,-0.923793538,273.3333333
6.2.1,win,7/21/20,18:55:13,1,3OS46CRSLHE28H365A1SHMUADHAV6X,MIMV_C_test,3,MIMD_C_v,16,57,1,737,3,self-absorbed,MIM_CI_vain,,0,381.8181818,,233.3333333,-0.93148459,262.5
6.2.1,win,7/21/20,18:55:13,1,3OS46CRSLHE28H365A1SHMUADHAV6X,MIMV_C_test,3,MIMD_C_att,17,33,1,584,1,attractive,MIM_CI_vain,,0,390.9090909,,238.8888889,-0.930450753,252.9411765
6.2.1,win,7/21/20,18:55:13,1,3OS46CRSLHE28H365A1SHMUADHAV6X,MIMV_C_test,3,MIMD_C_v,18,57,1,971,7,narcissistic,MIM_CI_vain,,0,400,,244.4444444,-0.949860365,244.4444444
6.2.1,win,7/21/20,18:55:13,1,3OS46CRSLHE28H365A1SHMUADHAV6X,MIMV_C_test,3,MIMD_C_im,19,36,1,659,6,unprincipled,MIM_CI_vain,,0,409.0909091,,250,-0.953721059,236.8421053
6.2.1,win,7/21/20,18:55:13,1,3OS46CRSLHE28H365A1SHMUADHAV6X,MIMV_C_test,3,MIMD_C_im,20,36,1,602,8,corrupt,MIM_CI_vain,,0,418.1818182,,255.5555556,-0.954901828,230
6.2.1,win,7/21/20,18:55:13,1,3OS46CRSLHE28H365A1SHMUADHAV6X,MIMV_C_test,3,MIMD_C_im,21,36,1,687,1,immoral,MIM_CI_vain,,0,427.2727273,,261.1111111,-0.960910185,223.8095238
6.2.1,win,7/21/20,18:55:13,1,3OS46CRSLHE28H365A1SHMUADHAV6X,MIMV_C_test,3,MIMD_C_m,22,33,1,927,3,virtuous,MIM_CI_vain,,0,436.3636364,,266.6666667,-0.977089019,218.1818182
6.2.1,win,7/21/20,18:55:13,1,3OS46CRSLHE28H365A1SHMUADHAV6X,MIMV_C_test,3,MIMD_C_m,23,33,1,597,7,trustworthy,MIM_CI_vain,,0,445.4545455,,272.2222222,-0.978628669,213.0434783
6.2.1,win,7/21/20,18:55:13,1,3OS46CRSLHE28H365A1SHMUADHAV6X,MIMV_C_test,3,MIMD_C_att,24,33,1,479,8,stunning,MIM_CI_vain,,0,454.5454545,,277.7777778,-0.974535164,208.3333333
6.2.1,win,7/21/20,18:55:13,1,3OS46CRSLHE28H365A1SHMUADHAV6X,MIMV_C_test,3,MIMD_C_im,25,36,1,775,7,untrustworthy,MIM_CI_vain,,0,463.6363636,,283.3333333,-0.984536052,204
6.2.1,win,7/21/20,18:55:13,1,3OS46CRSLHE28H365A1SHMUADHAV6X,MIMV_C_test,3,MIMD_C_v,26,57,1,676,8,conceited,MIM_CI_vain,,0,472.7272727,,288.8888889,-0.990401863,200
6.2.1,win,7/21/20,18:55:13,1,3OS46CRSLHE28H365A1SHMUADHAV6X,MIMV_C_test,3,MIMD_C_m,27,33,1,795,1,moral,MIM_CI_vain,,0,481.8181818,,294.4444444,-1.000842336,196.2962963
6.2.1,win,7/21/20,18:55:13,1,3OS46CRSLHE28H365A1SHMUADHAV6X,MIMV_C_test,3,MIMD_C_att,28,33,1,576,2,good-looking,MIM_CI_vain,,0,490.9090909,,300,-1.002429811,192.8571429
6.2.1,win,7/21/20,18:55:13,1,3OS46CRSLHE28H365A1SHMUADHAV6X,MIMV_C_test,3,MIMD_C_m,29,33,1,556,8,principled,MIM_CI_vain,,0,500,,305.5555556,-1.003391728,189.6551724
